time,ax,ay,az,gx,gy,gz,mx,my,mz
1.458593903833791E18,-2.0558777,1.7077942,8.932861,-0.16950989,-0.18566895,0.023284912,19.918251,-36.81774,-44.193077
1.4585939038438618E18,-1.8377686,1.7921448,9.000183,-0.22505188,-0.10876465,0.0435791,20.262718,-36.646652,-44.360733
1.4585939038690388E18,-1.5078735,1.838913,9.509003,0.07722473,-0.17926025,-0.104888916,19.918442,-36.7321,-45.1149
1.4585939038992512E18,-1.3072052,1.7187195,8.863266,0.030227661,-0.26257324,-0.11129761,20.004654,-36.475563,-45.366287
1.4585939039294636E18,-1.2965393,1.6535797,9.017319,-0.08192444,-0.20596313,-0.049346924,20.2631,-36.304474,-45.19863
1.4585939039445699E18,-1.123291,1.7014465,9.076492,-0.107559204,-0.20062256,-0.06643677,19.918442,-36.218834,-45.45002
1.4585939039647114E18,-1.1503448,1.7048035,9.004395,-0.16950989,-0.22518921,-0.05895996,19.83223,-35.962296,-45.78533
1.458593903984853E18,-0.9194336,1.7534485,9.282959,-0.19407654,-0.19421387,-0.07070923,19.143105,-35.791206,-45.7016
1.4585939040049946E18,-0.77197266,1.886795,9.655777,-0.11076355,-0.23800659,-0.11663818,18.798637,-35.620117,-45.533943
1.458593904025136E18,-0.6979523,1.9272919,9.250641,-0.0370636,-0.2529602,-0.14013672,18.626213,-35.19249,-45.366478
1.4585939040452777E18,-0.67030334,1.9248505,8.841827,-0.1353302,-0.27111816,-0.19567871,18.453789,-35.10704,-45.45021
1.4585939040704548E18,-0.92655945,1.7484131,9.69574,-0.13746643,-0.3576355,-0.21810913,18.10913,-35.0214,-45.282555
1.4585939040855608E18,-0.9396057,1.579834,9.7964325,-0.0723114,-0.32666016,-0.22131348,17.850685,-35.19249,-45.45021
1.4585939041057027E18,-1.0879517,1.6059113,9.526611,-0.066970825,-0.27645874,-0.2298584,17.936897,-34.85031,-45.534134
1.4585939041308795E18,-1.2890167,1.4995422,9.65123,-0.033859253,-0.1408081,-0.1807251,17.936897,-34.76467,-45.534134
1.4585939041459858E18,-1.2857971,1.4160767,9.483353,-0.042404175,-0.03186035,-0.15188599,18.02311,-34.593582,-45.785522
1.4585939041661274E18,-1.3132019,1.4748993,9.29657,-0.048812866,0.06427002,-0.14654541,17.764664,-34.507942,-46.03691
1.458593904186269E18,-1.4020386,1.43396,9.491623,-0.008224487,-0.037200928,-0.09420776,17.678642,-34.336853,-45.952988
1.458593904211446E18,-1.2256622,1.4055328,9.375671,-0.011428833,-0.059631348,-0.033325195,17.678642,-34.336853,-46.03672
1.458593904226552E18,-1.112854,1.446579,9.455048,-0.009292603,-0.0030212402,-0.008758545,17.678642,-34.336853,-46.28811
1.4585939042466936E18,-0.9204407,1.5515442,9.436829,0.0035247803,0.02154541,-0.016235352,17.59262,-33.909035,-46.204376
1.4585939042668355E18,-0.9754791,1.589859,9.156448,-0.024246216,0.07388306,0.0019226074,17.59262,-33.994675,-46.204376
1.458593904286977E18,-0.842926,1.6130066,9.410736,-0.028518677,0.051452637,0.017944336,17.59262,-34.080315,-46.120453
1.4585939043071186E18,-0.7732086,1.5767059,9.451065,-0.019973755,0.042907715,-0.005554199,17.59262,-34.080315,-46.03653
1.4585939043272602E18,-0.914978,1.518692,9.584625,0.027023315,-0.029724121,-0.011962891,17.678642,-33.909225,-46.204185
1.4585939043524372E18,-0.9778137,1.4174347,9.4131775,-0.0039520264,0.0012512207,0.004058838,17.678642,-34.165764,-46.539497
1.4585939043675433E18,-0.94088745,1.3982697,9.475708,0.0045928955,0.042907715,-0.004486084,17.764854,-34.165764,-46.62342
1.4585939043876849E18,-1.0577393,1.4205933,9.280609,-0.006088257,0.0012512207,0.022216797,17.937279,-34.165764,-46.62342
1.4585939044078267E18,-0.90463257,1.4828033,9.337997,-0.025314331,0.016204834,0.0029907227,18.0233,-34.251404,-46.95854
1.4585939044430743E18,-1.0155029,1.4564819,9.542328,0.011001587,-0.009429932,0.029693604,18.109322,-33.909035,-47.042465
1.4585939044682514E18,-1.0279694,1.4823303,9.207703,0.009933472,-0.001953125,0.03930664,18.281555,-33.823586,-47.12639
1.458593904488393E18,-0.9012909,1.5121613,9.205032,-0.01676941,-0.024383545,0.0435791,18.367767,-33.909225,-46.958733
1.4585939045085345E18,-0.83380127,1.4465942,9.339233,-0.044540405,0.022613525,0.020080566,18.712234,-33.738136,-46.87481
1.458593904528676E18,-0.9490204,1.4076843,9.454468,-0.027450562,-0.0030212402,0.027557373,18.626022,-33.652496,-46.95854
1.4585939045488177E18,-0.7939911,1.4864044,9.491013,-0.012496948,1.8310547E-4,0.01473999,18.626022,-33.652496,-46.87481
1.4585939045689595E18,-0.89308167,1.5296326,9.289047,-0.029586792,0.052520752,0.015808105,18.54,-33.566856,-46.791077
1.458593904589101E18,-0.96099854,1.5132294,9.354889,-0.040267944,0.03543091,0.01687622,18.367767,-33.566856,-46.62342
1.4585939046092426E18,-0.9280548,1.4557495,9.48703,-0.044540405,0.01727295,0.01687622,18.540192,-33.737946,-46.707153
1.4585939046293842E18,-0.9507141,1.4204712,9.467255,-0.019973755,0.007659912,0.030761719,18.626404,-33.737946,-46.62323
1.4585939046545613E18,-0.83883667,1.4890747,9.535858,-0.0039520264,0.008728027,0.01687622,18.367958,-33.737946,-46.706963
1.4585939046747028E18,-0.7863312,1.5142059,9.272614,-0.017837524,0.031158447,-0.004486084,18.195724,-33.909035,-46.706963
1.458593904689809E18,-0.8134918,1.5212097,9.25029,-0.010360718,0.0033874512,-0.014099121,18.281937,-33.737946,-46.37184
1.4585939047099505E18,-0.8414917,1.4748993,9.2534485,-0.0231781,0.025817871,-0.024780273,18.195724,-33.737946,-46.287918
1.4585939047300923E18,-0.76441956,1.4228668,9.26442,-0.035995483,0.03756714,-0.037597656,18.281746,-33.823586,-46.287918
1.4585939047502339E18,-0.76474,1.4174347,9.215134,-0.057357788,0.045043945,-0.05895996,18.195534,-33.823586,-46.204185
1.4585939047703754E18,-0.85154724,1.3828125,9.28035,-0.08085632,0.04824829,-0.06323242,18.195534,-33.909225,-46.03653
1.458593904790517E18,-0.9109802,1.3504791,9.416412,-0.071243286,0.056793213,-0.05255127,18.195534,-33.738136,-46.03653
1.4585939048106586E18,-0.9316406,1.3631592,9.507294,-0.053085327,0.03543091,-0.07498169,18.367767,-33.567047,-45.869064
1.4585939048308E18,-0.9988251,1.3303375,9.58786,-0.02104187,-0.001953125,-0.068573,18.45398,-33.395958,-45.869064
1.4585939048509417E18,-1.1051178,1.3878021,9.453735,-0.011428833,-0.0051574707,-0.05682373,18.367767,-33.481598,-46.03653
1.4585939048710835E18,-0.8341522,1.4365845,9.344498,-0.0370636,0.018341064,-0.08886719,18.367767,-33.31051,-45.952797
1.458593904891225E18,-1.1769257,1.3290558,9.574844,-0.032791138,0.0044555664,-0.08139038,18.367767,-33.22487,-45.78514
1.4585939049113667E18,-1.1186218,1.2833252,9.635437,0.029159546,-0.02758789,-0.047210693,18.45398,-33.31051,-45.952606
1.4585939049365435E18,-1.0354004,1.2967377,9.362686,-0.0028839111,0.0055236816,-0.035461426,18.626213,-33.13942,-46.120262
1.4585939049516498E18,-1.10289,1.340805,9.463333,0.018478394,-0.0040893555,-0.026916504,18.712234,-33.31051,-46.120262
1.4585939049717914E18,-1.0818481,1.3518219,9.294128,0.0013885498,-0.011566162,0.005126953,18.97068,-33.31051,-46.287727
1.458593904991933E18,-0.824646,1.4254913,9.31398,-0.0231781,0.0033874512,-0.026916504,18.97068,-33.13942,-46.37165
1.4585939050120745E18,-0.8907471,1.3748016,9.400482,-0.0028839111,-0.015838623,-0.041870117,19.143105,-33.13942,-46.287918
1.4585939050322163E18,-1.0354004,1.32164,9.380585,0.006729126,-0.019042969,-0.03012085,19.056892,-33.13942,-46.539307
1.458593905052358E18,-0.9794159,1.35112,9.281448,-0.02104187,0.0140686035,-0.017303467,19.40155,-33.22506,-46.790695
1.4585939050775347E18,-0.9276581,1.4102173,9.440292,-0.026382446,0.0055236816,-0.03225708,19.487762,-33.22506,-46.790695
1.458593905092641E18,-0.9115906,1.3894043,9.36554,-0.007156372,-0.032928467,-0.029052734,19.315529,-33.13942,-46.706963
1.4585939051127826E18,-0.8858185,1.4096832,9.29953,-0.0135650635,-0.03186035,-0.03652954,19.143295,-33.05378,-46.87462
1.4585939051329242E18,-0.9396057,1.340805,9.335541,-0.03919983,1.8310547E-4,-0.040802002,18.798828,-33.22487,-47.042274
1.4585939051530657E18,-1.008667,1.3369293,9.4105835,-0.035995483,0.0140686035,-0.046142578,18.540382,-33.395958,-47.126007
1.4585939051732076E18,-1.1694946,1.2892914,9.50972,-0.015701294,-0.030792236,-0.019439697,18.626404,-33.395958,-47.293663
1.458593905193349E18,-1.0262756,1.293335,9.360184,-0.015701294,-0.009429932,-0.00982666,18.971062,-33.481598,-47.293663
1.4585939052134907E18,-0.9711304,1.302475,9.462341,-0.022109985,0.009796143,-0.0076904297,18.88485,-33.31051,-47.20993
1.4585939052336323E18,-1.006424,1.2926483,9.455338,-0.01890564,0.03543091,-0.017303467,18.88485,-33.13942,-47.20993
1.4585939052537738E18,-1.092865,1.330307,9.29863,-0.019973755,0.008728027,0.0061950684,18.798637,-33.39615,-47.20993
1.4585939052739154E18,-0.88093567,1.3593445,9.311539,-0.022109985,-0.02545166,-0.0023498535,18.798637,-33.3107,-47.126198
1.458593905294057E18,-0.8978882,1.299057,9.3424225,-0.0135650635,-0.016906738,-0.014099121,19.143105,-33.13961,-47.042465
1.4585939053141985E18,-0.88212585,1.2893066,9.380386,-0.026382446,0.0044555664,-0.023712158,19.229126,-33.22525,-46.87481
1.4585939053343404E18,-1.060852,1.2704468,9.496231,-0.044540405,0.04397583,-0.014099121,19.056892,-32.797432,-46.87481
1.458593905354482E18,-1.0850677,1.2922974,9.369598,-0.05949402,0.054656982,0.0072631836,18.97068,-32.797432,-46.707153
1.4585939053746235E18,-1.0071869,1.2529907,9.348206,-0.07765198,0.09951782,0.029693604,18.884659,-32.797432,-46.707153
1.458593905394765E18,-1.0078125,1.272583,9.368408,-0.07765198,0.11126709,0.020080566,18.884659,-32.88288,-47.042274
1.4585939054350482E18,-0.92440796,1.2297974,9.449005,-0.030654907,0.03756714,-0.011962891,18.970871,-32.88288,-47.042274
1.4585939054400837E18,-1.0389862,1.2258453,9.370804,-0.022109985,0.01940918,-0.00982666,18.970871,-32.711792,-47.20974
1.4585939054551898E18,-1.1199036,1.2337189,9.450684,-0.01890564,-0.0040893555,0.0115356445,18.798637,-32.79724,-47.125816
1.4585939054753313E18,-1.0323944,1.202301,9.418488,-0.009292603,-0.0211792,0.010467529,18.88485,-32.79724,-46.95835
1.4585939054954732E18,-1.0523376,1.2258453,9.48114,0.0056610107,-0.035064697,8.544922E-4,18.971062,-33.22506,-46.790695
1.4585939055156147E18,-1.0545502,1.1591492,9.397507,0.015274048,-0.057495117,0.0029907227,18.798828,-33.13942,-46.87462
1.4585939055357563E18,-1.0335388,1.1770172,9.417236,0.015274048,-0.071380615,0.0072631836,18.798828,-33.05378,-46.95835
1.4585939055558979E18,-1.0354004,1.2095795,9.37944,-0.0039520264,-0.04147339,-0.0034179688,18.712616,-33.13942,-46.707153
1.4585939055760394E18,-1.0737152,1.2619019,9.3537445,0.0045928955,-0.035064697,0.0072631836,18.798637,-32.96833,-46.707153
1.458593905596181E18,-1.0403442,1.2307739,9.392502,-7.4768066E-4,-0.0211792,-2.1362305E-4,18.798637,-33.31051,-46.62342
1.4585939056163226E18,-0.97436523,1.1875305,9.3532715,0.0045928955,-0.014770508,0.005126953,18.88485,-33.13942,-46.62342
1.4585939056364644E18,-1.0068665,1.2160645,9.45401,0.002456665,-0.055358887,0.008331299,18.88485,-32.88269,-46.790886
1.458593905656606E18,-1.0073242,1.1964417,9.401825,0.022750854,-0.051086426,0.01687622,18.88485,-32.7116,-47.042274
1.4585939056767475E18,-0.82821655,1.2258453,9.211594,-0.022109985,-0.0040893555,0.009399414,19.057083,-32.455063,-46.95835
1.458593905696889E18,-0.89012146,1.32164,9.2630005,-0.07017517,0.058929443,0.0029907227,19.057083,-32.540703,-46.790695
1.4585939057170307E18,-0.9312134,1.3168945,9.76709,-0.0039520264,-0.07244873,-0.018371582,18.970871,-32.112885,-46.62304
1.4585939057371722E18,-0.9970703,1.1724548,9.69696,0.06867981,-0.087402344,-0.019439697,18.970871,-32.112885,-46.539116
1.4585939057573138E18,-0.97792053,1.1923218,9.349243,-0.007156372,0.015136719,0.005126953,18.970871,-31.856155,-46.62285
1.4585939057774554E18,-0.9282074,1.2833252,9.643921,0.027023315,0.0140686035,0.004058838,18.798447,-31.941795,-46.70677
1.4585939058026324E18,-0.8893738,1.2833252,9.328537,0.02809143,0.006591797,-0.0012817383,18.798447,-32.027435,-46.539307
1.4585939058177388E18,-0.8727417,1.2359924,9.27301,0.012069702,0.008728027,8.544922E-4,18.626022,-32.112885,-46.37165
1.4585939058378803E18,-0.93573,1.1836548,9.264984,0.007797241,0.0044555664,-0.0066223145,18.54,-32.369423,-46.455574
1.458593905858022E18,-0.8203125,1.1757813,9.226898,-0.0039520264,0.006591797,-0.014099121,18.626022,-32.369423,-46.62323
1.4585939058781635E18,-0.9587555,1.1725311,9.30426,-0.019973755,-0.006225586,-0.024780273,18.798447,-32.7116,-46.790886
1.458593905898305E18,-0.93278503,1.1875305,9.450546,0.0013885498,-0.02331543,-0.013031006,18.884659,-32.79705,-47.042274
1.4585939059184466E18,-0.97776794,1.2354889,9.378067,0.002456665,-0.022247314,-0.0023498535,19.056892,-32.79705,-47.042274
1.4585939059385882E18,-0.9294739,1.2934418,9.321075,-0.012496948,-0.012634277,8.544922E-4,19.056892,-32.96814,-46.87462
1.45859390595873E18,-0.9286041,1.2612915,9.368408,-0.029586792,1.8310547E-4,-0.0076904297,18.97068,-33.05359,-47.042084
1.4585939059788716E18,-0.87065125,1.1760559,9.494843,-0.024246216,-0.0030212402,-0.018371582,19.143105,-33.05359,-47.20974
1.458593905999013E18,-0.8847656,1.1492157,9.486008,-7.4768066E-4,-0.006225586,-0.024780273,19.229126,-33.05359,-47.125816
1.4585939060191547E18,-1.0006104,1.1945801,9.399673,3.2043457E-4,-0.014770508,-0.021575928,19.056892,-33.139038,-47.042084
1.4585939060392963E18,-0.97792053,1.2131195,9.298218,-0.009292603,-0.0051574707,-0.00982666,18.798447,-33.05359,-47.125816
1.4585939060594378E18,-0.95773315,1.2540588,9.300842,-0.0039520264,-8.8500977E-4,-0.00982666,18.54,-33.05359,-46.95835
1.4585939060795794E18,-0.85427856,1.2728577,9.215134,-0.026382446,0.025817871,-0.0076904297,18.54,-33.13923,-46.87462
1.4585939060997212E18,-0.8445282,1.302475,9.235733,-0.06376648,0.05999756,-0.017303467,18.626213,-32.96814,-47.042274
1.4585939061198628E18,-0.824646,1.2728271,9.319611,-0.06590271,0.06854248,-0.031188965,18.712425,-32.7116,-46.95854
1.4585939061349688E18,-0.99038696,1.2397308,9.378952,-0.09687805,0.0909729,-0.005554199,18.712425,-32.455063,-46.87481
1.458593906160146E18,-1.1311798,1.2573242,9.716675,-0.066970825,0.09844971,0.029693604,18.626404,-32.369614,-46.958733
1.4585939061802875E18,-0.89530945,1.2893066,9.661774,-0.032791138,0.033294678,0.026489258,18.45417,-32.113075,-46.707344
1.458593906200429E18,-0.8303528,1.2450104,9.5972595,0.015274048,-0.006225586,0.015808105,18.626404,-32.027435,-46.455956
1.4585939062205706E18,-0.73147583,1.2532654,9.321823,0.0045928955,0.031158447,0.021148682,18.712616,-31.856346,-46.62342
1.4585939062407122E18,-0.6617584,1.2450104,9.234299,-0.01890564,0.029022217,-2.1362305E-4,18.712616,-31.770706,-46.87481
1.458593906260854E18,-0.56588745,1.1775513,9.301498,-0.02104187,0.016204834,-0.005554199,18.88485,-31.941795,-46.707153
1.4585939062809956E18,-0.612381,1.1315918,9.309402,0.014205933,-0.030792236,-0.0012817383,18.88485,-32.027245,-46.790886
1.4585939063011372E18,-0.4779663,1.2641602,9.215134,0.007797241,-0.060699463,-0.015167236,18.798637,-32.027245,-46.62323
1.4585939063212787E18,-0.5233154,1.3651428,9.089798,-0.017837524,-0.042541504,-0.037597656,18.712425,-32.027245,-46.790695
1.4585939063414203E18,-0.54489136,1.4058685,9.103867,-0.048812866,-0.02758789,-0.03439331,18.884659,-32.112694,-47.20955
1.4585939063615619E18,-0.61390686,1.371048,9.26152,-0.052017212,-0.03186035,-0.041870117,18.626213,-32.112694,-47.628403
1.4585939063817034E18,-0.7194519,1.36026,9.338913,-0.055221558,-0.04360962,-0.055755615,18.712234,-32.112694,-47.712135
1.4585939064018452E18,-0.8060303,1.3019409,9.656326,-0.030654907,-0.07992554,-0.06430054,18.712234,-32.112694,-47.628212
1.4585939064320576E18,-1.0054016,1.2450104,9.68074,0.0259552,-0.06283569,-0.011962891,18.453789,-31.855965,-47.963333
1.4585939064421284E18,-0.99172974,1.2476807,9.510986,0.020614624,-0.04147339,0.01260376,18.453789,-31.855965,-48.047256
1.45859390646227E18,-0.81396484,1.3514862,9.179947,0.019546509,-0.013702393,0.03289795,18.453789,-32.369232,-48.382378
1.4585939064824115E18,-0.8023834,1.3599548,9.004395,-0.024246216,-0.0051574707,0.030761719,18.453789,-32.283592,-48.13099
1.458593906502553E18,-0.9294739,1.2269745,9.194855,-0.062698364,0.0044555664,0.03930664,18.54,-32.198143,-48.13099
1.4585939065226947E18,-1.0440674,1.1213837,9.383911,-0.10115051,0.057861328,0.07989502,18.798447,-32.027054,-47.963524
1.4585939065428362E18,-0.9587555,1.0940704,9.559982,-0.14173889,0.12942505,0.09164429,18.798447,-32.112694,-47.712326
1.458593906562978E18,-1.215271,1.1223297,9.813049,-0.116104126,0.23410034,0.13864136,18.712425,-32.112694,-47.54486
1.4585939065831196E18,-1.090622,1.3475342,9.804565,-0.038131714,0.1465149,0.15893555,18.88485,-32.283783,-47.54486
1.4585939066032612E18,-0.9862366,1.574295,9.664108,0.08256531,0.006591797,0.10018921,18.798637,-32.283783,-47.712326
1.4585939066234028E18,-1.233963,1.7309418,9.046143,0.049453735,0.0140686035,0.07775879,18.88485,-31.855965,-47.628593
1.4585939066435443E18,-1.2200623,1.8667603,8.906845,-0.06376648,0.056793213,0.062805176,18.88485,-31.770515,-47.879982
1.4585939066687214E18,-1.0737152,1.9865112,9.179016,-0.11930847,0.06213379,0.05105591,18.798637,-32.027054,-47.879982
1.4585939066838275E18,-1.006134,2.0709229,9.351364,-0.10649109,0.01940918,0.03717041,18.970871,-32.112694,-47.963715
1.458593906703969E18,-0.9263916,2.107132,9.360046,-0.08833313,-0.06390381,0.025421143,18.798637,-31.941605,-47.963715
1.4585939067241108E18,-0.75642395,2.0664368,9.409088,-0.08085632,-0.14935303,-0.0023498535,18.798637,-32.027245,-47.712326
1.4585939067442524E18,-0.7557678,1.8529053,9.622635,-0.07551575,-0.1963501,-0.033325195,18.712425,-31.856155,-47.54486
1.458593906764394E18,-1.0293732,1.6533508,9.803574,-0.038131714,-0.20275879,-0.037597656,18.712425,-31.770706,-47.377396
1.4585939067845356E18,-1.1243439,1.5605621,9.716537,0.071884155,-0.23266602,0.021148682,18.798447,-31.770706,-47.20974
1.4585939068097126E18,-0.90649414,1.6612854,9.11351,0.11781311,-0.27859497,-0.0034179688,18.712234,-31.770706,-47.126007
1.4585939068298542E18,-1.11203,1.763916,8.988525,0.08149719,-0.27005005,-0.03225708,18.798447,-31.599617,-46.95854
1.458593906839925E18,-1.1503448,1.7670288,9.052353,0.05265808,-0.2241211,-0.02798462,18.54,-31.513977,-46.87481
1.458593906865102E18,-1.0057526,1.8790588,9.131668,0.020614624,-0.1408081,-0.03866577,18.54,-31.685066,-47.042274
1.4585939068852436E18,-0.8400116,1.8656769,9.272614,0.009933472,-0.10235596,-0.05682373,18.281555,-31.513977,-47.628784
1.4585939069053852E18,-0.74668884,1.882721,9.394394,0.016342163,-0.120513916,-0.11022949,18.195343,-31.342888,-47.79625
1.4585939069255268E18,-0.7758026,1.9030914,9.425873,0.017410278,-0.116241455,-0.17004395,18.281555,-31.257248,-47.879982
1.4585939069456684E18,-0.8144226,1.859375,9.445038,-0.02104187,-0.10128784,-0.19888306,18.02311,-31.257248,-48.38276
1.45859390696581E18,-0.9396057,1.8478241,9.714584,-0.026382446,-0.12585449,-0.21170044,18.109322,-31.257248,-48.38276
1.4585939069859515E18,-0.824646,1.885025,9.84314,-0.008224487,-0.1611023,-0.24160767,17.850876,-31.086159,-48.38276
1.458593907006093E18,-0.97076416,1.7765961,10.02948,-0.015701294,-0.19741821,-0.24908447,18.0233,-31.257248,-48.46649
1.458593907026235E18,-0.88212585,1.6206818,10.275879,0.0045928955,-0.14828491,-0.24801636,18.195534,-31.000519,-48.299026
1.4585939070463764E18,-0.8373871,1.6473389,10.543503,0.06440735,-0.13012695,-0.23519897,18.367767,-30.74379,-48.13137
1.458593907066518E18,-0.77552795,1.71315,10.207962,0.16481018,-0.1611023,-0.23092651,18.281746,-30.914879,-48.13137
1.458593907091695E18,-0.9204407,1.8717041,9.606781,0.20433044,-0.13973999,-0.20422363,18.195534,-31.257057,-48.13137
1.4585939071068012E18,-0.9140625,1.9602356,9.406723,0.21714783,-0.1055603,-0.17004395,18.281746,-31.171608,-47.879982
1.4585939071269427E18,-0.81544495,2.0113373,9.243515,0.2224884,-0.09274292,-0.15402222,18.281746,-31.171608,-47.879982
1.4585939071470843E18,-1.0099487,2.0062408,9.147491,0.1872406,-0.02545166,-0.118774414,18.367767,-31.257248,-47.79606
1.4585939071621906E18,-1.1271667,2.1154022,9.409561,0.19364929,0.05999756,-0.073913574,18.109322,-31.086159,-47.54467
1.4585939071873677E18,-1.5140686,2.3813171,9.726135,0.28764343,0.16894531,0.01473999,17.850876,-31.171799,-47.29328
1.4585939072075092E18,-1.6394806,2.58609,9.695297,0.38697815,0.24691772,0.11407471,17.937088,-31.342888,-46.874428
1.4585939072276508E18,-1.5501709,2.6927032,9.478363,0.49058533,0.29605103,0.19631958,18.281555,-31.513977,-46.455574
1.4585939072477924E18,-1.0762177,2.5977478,9.04689,0.47349548,0.3013916,0.15145874,18.45398,-31.513977,-46.03653
1.458593907267934E18,-0.53385925,2.2099915,8.179016,0.30900574,0.092041016,-0.039733887,18.540192,-31.856155,-45.78514
1.4585939072880755E18,-0.52267456,1.4086609,8.328018,-0.054153442,-0.006225586,-0.18927002,18.712425,-32.027245,-45.366096
1.458593907308217E18,-1.2312012,0.8670349,9.7885895,-0.22718811,0.14865112,-0.15829468,18.970871,-32.112694,-45.19863
1.458593907328359E18,-1.2990112,0.68807983,10.709488,-0.13105774,0.25653076,0.040374756,19.229317,-32.454872,-45.031166
1.4585939073485005E18,-0.70536804,1.0492249,10.562515,0.06227112,0.13903809,0.11300659,19.83223,-32.62596,-44.86351
1.458593907368642E18,-0.38401794,1.1387329,10.010834,0.22142029,-0.055358887,0.08950806,19.918251,-32.7116,-44.52839
1.4585939073887836E18,-0.31987,1.0409241,9.566238,0.23210144,-0.1472168,0.09484863,19.918251,-32.7116,-44.52839
1.4585939074089252E18,0.20108032,1.0389252,9.631454,0.26307678,-0.11303711,0.09378052,19.918251,-32.626152,-44.696045
1.4585939074290668E18,0.580246,1.0874634,9.204529,0.2363739,-0.013702393,0.044647217,19.918251,-32.455063,-44.27719
1.4585939074492083E18,0.59213257,1.188446,9.088318,0.22996521,0.085632324,-0.047210693,19.918251,-32.455063,-44.444847
1.45859390746935E18,0.37677002,1.2667084,8.927765,0.2502594,0.07067871,-0.13693237,19.746017,-32.626152,-44.27719
1.4585939074894917E18,0.16603088,1.1984558,8.719727,0.2716217,-0.0030212402,-0.23413086,19.918251,-32.369614,-44.025803
1.4585939075096333E18,-0.28822327,1.0248108,8.534897,0.22035217,-0.006225586,-0.2501526,19.573784,-32.198524,-43.94207
1.4585939075297748E18,-0.56907654,0.9959564,8.837662,0.11354065,0.047180176,-0.2234497,19.746017,-32.540703,-43.858147
1.4585939075499164E18,-0.74801636,1.0342712,9.0750885,0.092178345,0.09524536,-0.1946106,20.004463,-32.369614,-43.60676
1.458593907570058E18,-0.71969604,1.1400299,9.2534485,0.096450806,0.10165405,-0.16043091,20.176697,-32.369614,-43.439102
1.4585939075901996E18,-0.7671814,1.3164825,9.167984,0.121017456,0.061065674,-0.13052368,20.34893,-32.283974,-43.439102
1.458593907610341E18,-0.7392731,1.5619354,9.156036,0.14878845,0.034362793,-0.11022949,20.607376,-32.112885,-43.187714
1.458593907630483E18,-0.824646,1.7239685,8.942474,0.12742615,-0.0211792,-0.078186035,20.951843,-32.112885,-43.187714
1.4585939076506245E18,-0.67097473,1.8197632,8.995453,0.07829285,-0.008361816,-0.057891846,20.865631,-32.198334,-43.10379
1.458593907670766E18,-0.582489,1.8457947,9.391434,0.07722473,0.01940918,-0.040802002,21.037865,-32.198334,-43.187523
1.4585939076909076E18,-0.4745636,1.9713135,9.460663,0.12208557,-0.008361816,-0.025848389,20.951843,-31.856155,-43.35518
1.4585939077110492E18,-0.29803467,2.1886597,9.310928,0.13917542,-0.04788208,-0.03652954,20.865631,-31.941795,-43.271255
1.4585939077311908E18,-0.24990845,2.298706,9.020004,0.12956238,-0.091674805,-0.05255127,20.951653,-31.941795,-43.019867
1.4585939077513324E18,-0.24501038,2.375351,8.9086,0.0398407,-0.069244385,-0.073913574,21.037674,-32.112885,-43.019867
1.458593907771474E18,-0.18069458,2.3636017,8.954346,-0.02104187,-0.04360962,-0.09527588,21.037674,-32.283974,-42.85221
1.4585939077916157E18,-0.13600159,2.3945007,9.475342,-0.010360718,-0.013702393,-0.11557007,20.86544,-32.198524,-42.85221
1.4585939078117573E18,-0.3887329,2.3681183,9.433105,0.0750885,-0.010498047,-0.08673096,21.037674,-32.284164,-42.76848
1.458593907831899E18,-0.45495605,2.4845886,9.021484,0.07295227,-0.05429077,-0.05895996,21.123886,-32.284164,-42.76848
1.4585939078520404E18,-0.5181122,2.571579,8.975403,0.06654358,-0.07778931,-0.045074463,20.951653,-32.369614,-42.684746
1.458593907872182E18,-0.6556549,2.5477753,9.070602,0.09111023,-0.10983276,-0.011962891,20.779419,-32.027435,-42.684746
1.4585939078923236E18,-0.6772766,2.581665,8.95134,0.09324646,-0.13546753,0.04144287,20.607185,-31.941795,-42.76867
1.4585939079124652E18,-0.42233276,2.7080688,8.767471,0.045181274,-0.08633423,0.06173706,20.34893,-31.941795,-42.76867
1.4585939079326067E18,-0.48945618,2.7200317,8.985687,-0.04560852,-0.019042969,0.07348633,20.090485,-31.941795,-42.936325
1.4585939079527485E18,-0.5258484,2.624405,9.402725,-0.04560852,-0.044677734,0.11087036,19.918251,-31.856155,-42.852592
1.45859390797289E18,-0.287323,2.6374817,9.559982,-0.012496948,-0.069244385,0.15359497,19.573784,-31.856155,-42.936325
1.4585939079930317E18,-0.12608337,2.7622375,9.5651245,0.029159546,-0.040405273,0.17175293,19.229317,-31.685066,-42.936325
1.4585939080131732E18,-0.12599182,2.9500885,9.37738,0.008865356,0.02154541,0.1770935,18.970871,-31.513977,-43.020058
1.4585939080333148E18,-0.3151703,3.0228271,9.5525055,0.033432007,0.04611206,0.21875,18.712425,-31.770515,-42.852592
1.4585939080534564E18,-0.56362915,2.7962341,9.636627,0.1028595,0.038635254,0.25613403,18.540192,-31.685066,-42.76867
1.458593908073598E18,-1.1864319,2.443512,9.628159,0.16267395,-0.009429932,0.33944702,18.195534,-31.513977,-42.601013
1.4585939080937398E18,-1.5829468,2.370346,9.633575,0.27375793,-0.11303711,0.5124817,17.764854,-31.513977,-42.51728
1.4585939081138813E18,-1.3871613,2.9550476,9.273407,0.31861877,-0.1269226,0.6673584,17.764854,-31.513977,-42.51728
1.458593908134023E18,-0.8603058,3.6283875,8.799957,0.22569275,-0.19314575,0.70581055,17.59262,-31.685066,-42.349815
1.458593908149129E18,-0.30088806,3.8131409,8.740372,0.0035247803,-0.28286743,0.6235657,17.161942,-32.112694,-42.266083
1.458593908174306E18,0.6840515,2.8974,9.813843,-0.24641418,-0.1824646,0.46975708,16.903496,-32.112694,-42.014694
1.4585939081944476E18,0.48597717,1.7832184,11.504486,-0.28486633,0.0044555664,0.40246582,16.386795,-32.283783,-42.014694
1.4585939082145892E18,0.004043579,1.2888184,11.900574,-0.011428833,0.05999756,0.45907593,15.869904,-32.454872,-42.266083
1.4585939082347308E18,0.07783508,1.8153381,10.509918,0.26200867,0.008728027,0.50286865,15.439224,-32.62596,-42.266083
1.4585939082548726E18,0.24821472,2.2167969,8.917496,0.30366516,0.034362793,0.40353394,15.266991,-32.62596,-42.014694
1.4585939082750141E18,-0.08792114,2.2332306,8.022491,0.19151306,0.114471436,0.30099487,14.664078,-32.79705,-41.84704
1.4585939082951557E18,-0.7839508,1.940979,8.051575,0.1306305,0.14224243,0.24972534,14.147186,-32.54032,-41.763306
1.4585939083152973E18,-1.4222717,1.5330048,8.123108,0.10606384,0.1465149,0.27001953,13.716507,-32.369232,-41.511917
1.4585939083354388E18,-1.85112,1.3186493,8.065643,0.007797241,0.17321777,0.31167603,13.458061,-32.62596,-41.428185
1.4585939083555804E18,-1.807373,1.2559814,8.240601,-0.13426208,0.17855835,0.33410645,13.027382,-32.454872,-41.428185
1.458593908375722E18,-1.6101379,1.2145996,8.902924,-0.24534607,0.15292358,0.3095398,12.682915,-32.54032,-41.176796
1.4585939083958636E18,-1.401413,1.1356354,9.482544,-0.27845764,0.12728882,0.31274414,12.769127,-32.454872,-41.428185
1.4585939084210406E18,-0.7282715,1.1683807,10.03894,-0.18125916,0.114471436,0.2967224,12.510681,-32.454872,-41.763306
1.458593908436147E18,-0.3952942,1.2949524,10.11557,-0.12892151,0.1678772,0.3031311,12.252235,-32.283783,-41.93096
1.4585939084562885E18,-0.18328857,1.5698395,9.871536,-0.050949097,0.20526123,0.29244995,12.252235,-32.283783,-42.18216
1.45859390847643E18,-0.0047454834,2.0406647,9.231903,-0.0018157959,0.15505981,0.2678833,12.252235,-32.283783,-42.18216
1.4585939084965716E18,0.09465027,2.287262,8.770493,-0.0050201416,0.09844971,0.18457031,12.252235,-32.112694,-42.18216
1.4585939085167132E18,-0.37852478,2.317871,8.666687,-0.015701294,0.051452637,0.11514282,12.510681,-32.027245,-42.433548
1.4585939085368548E18,-0.5339203,2.2299652,8.624603,-0.053085327,-0.05215454,0.07241821,12.682915,-31.856155,-42.349815
1.4585939085569966E18,-0.4745636,2.1384888,9.004395,-0.056289673,-0.089538574,0.0072631836,12.424469,-31.941605,-42.098427
1.4585939085771382E18,-0.727829,2.0597382,9.038712,-0.038131714,-0.048950195,-0.02798462,12.338448,-31.855965,-41.84704
1.4585939085972797E18,-0.7875061,2.0168304,8.677551,-0.09046936,0.002319336,-0.06750488,12.338448,-31.770515,-41.763115
1.4585939086174213E18,-1.0016785,1.9975128,8.798264,-0.15562439,0.02154541,-0.08886719,12.080193,-31.685066,-41.511917
1.458593908637563E18,-1.0208435,1.946579,8.923157,-0.170578,0.010864258,-0.049346924,12.252426,-31.428528,-41.59565
1.4585939086577044E18,-1.0652466,1.9829712,9.06337,-0.23146057,0.03543091,-0.029052734,11.994171,-31.171799,-41.763115
1.458593908677846E18,-1.0244598,2.1700745,9.455994,-0.2474823,0.092041016,0.0115356445,11.821938,-31.171799,-41.59546
1.4585939086979876E18,-0.65419006,2.3235931,9.464203,-0.25175476,0.14437866,0.038238525,11.649704,-30.91526,-41.59546
1.4585939087181294E18,-0.4369812,2.5240936,9.623093,-0.20262146,0.110198975,-0.015167236,11.735916,-30.487633,-41.427994
1.458593908738271E18,-0.673996,2.6052399,9.679077,-0.056289673,-8.8500977E-4,-0.0546875,11.649704,-30.145454,-41.511726
1.4585939087584125E18,-0.5905762,2.632782,9.377396,0.087905884,-0.13867188,-0.06750488,11.47747,-30.316544,-41.427994
1.458593908778554E18,-0.28822327,2.7462769,8.920837,0.09111023,-0.14187622,-0.10595703,11.649704,-30.145454,-41.67919
1.4585939087986957E18,-0.37443542,2.7201996,8.793655,0.059066772,-0.1194458,-0.15722656,11.305237,-30.316544,-41.67919
1.4585939088188372E18,-0.5497589,2.6904907,8.968018,0.030227661,-0.10342407,-0.21170044,11.391258,-30.231094,-41.59546
1.4585939088389788E18,-0.8141022,2.4955597,9.187378,0.04197693,-0.056427002,-0.22024536,11.391258,-30.060005,-41.763115
1.4585939088591206E18,-0.824646,2.485443,8.956619,0.03236389,-0.071380615,-0.20101929,11.305237,-30.060005,-41.763115
1.4585939088792622E18,-0.5403137,2.6685638,8.802536,-0.0018157959,-0.0703125,-0.21063232,11.219025,-30.145454,-42.18197
1.4585939088994038E18,-0.46151733,2.854309,8.636688,-0.12037659,-0.014770508,-0.27044678,11.391258,-30.231094,-42.18197
1.4585939089195453E18,-0.74801636,2.8670654,9.02356,-0.1844635,-0.015838623,-0.2640381,11.649704,-29.803276,-42.433357
1.458593908939687E18,-0.75813293,2.7675629,9.605286,-0.17378235,-0.057495117,-0.2234497,11.563492,-29.546547,-42.18216
1.4585939089598285E18,-0.52978516,2.8159943,9.86319,-0.13319397,-0.05215454,-0.1807251,11.563492,-29.204369,-42.18216
1.45859390897997E18,-0.1991272,2.8092957,10.038055,-0.056289673,-0.08847046,-0.19781494,11.563492,-29.375458,-42.098427
1.4585939090001116E18,-0.36642456,2.8838196,9.959213,0.053726196,-0.13119507,-0.22558594,11.563492,-29.204369,-42.014503
1.4585939090202534E18,-0.63786316,3.1608276,9.358841,0.08149719,-0.14508057,-0.21704102,11.563492,-29.118729,-42.014503
1.458593909040395E18,-0.7288666,3.2989655,9.219177,0.0750885,-0.1269226,-0.21490479,11.649704,-29.03328,-41.511726
1.4585939090605366E18,-0.8702545,3.2374725,9.138504,0.074020386,-0.14614868,-0.22024536,11.219025,-28.86219,-41.34426
1.4585939090806781E18,-0.8716583,2.870163,9.042709,0.016342163,-0.10876465,-0.2501526,11.1328125,-28.86219,-40.925407
1.4585939091008197E18,-1.1410217,2.4126282,9.310928,-0.050949097,-0.017974854,-0.2298584,10.960579,-29.03328,-41.00914
1.4585939091209613E18,-1.2261505,2.1829224,9.322327,-0.04988098,0.02154541,-0.17752075,10.702133,-29.03328,-41.092873
1.4585939091411028E18,-1.1367645,2.1182861,9.176819,-0.109695435,0.03970337,-0.12625122,10.5299,-28.86219,-41.092873
1.4585939091612444E18,-0.98757935,2.0065155,9.516861,-0.11930847,0.067474365,-0.09207153,10.357475,-28.86219,-40.75775
1.4585939091813862E18,-0.81539917,1.9588013,9.843048,-0.050949097,0.036499023,-0.08139038,10.185051,-28.691101,-40.67402
1.4585939092015278E18,-0.545166,1.8907471,9.565628,-0.024246216,-0.019042969,-0.09313965,9.926605,-28.434372,-40.67402
1.4585939092216694E18,-0.33738708,1.7705841,9.779053,-0.035995483,0.03756714,-0.08566284,10.012817,-28.348732,-40.42263
1.458593909241811E18,-0.087127686,1.6474457,9.866516,-0.0050201416,0.04824829,-0.09741211,9.840584,-28.092194,-40.42263
1.4585939092619525E18,-0.05831909,1.487854,9.8155365,0.05479431,0.047180176,-0.11663818,9.66835,-27.921104,-40.17124
1.458593909282094E18,0.018310547,1.1764526,9.554306,0.092178345,0.030090332,-0.14013672,9.754372,-27.750015,-39.920044
1.4585939093022356E18,0.013717651,0.9093323,9.281799,0.05265808,0.0140686035,-0.1668396,9.6681595,-27.578926,-39.83631
1.4585939093223775E18,0.008392334,0.6986542,9.195984,0.024887085,0.01940918,-0.16043091,9.754372,-27.407837,-39.584923
1.458593909342519E18,-0.1784668,0.69981384,9.124542,-0.040267944,0.0140686035,-0.16363525,9.754372,-27.493477,-39.417267
1.4585939093626606E18,-0.28034973,0.73114014,9.331131,-0.042404175,-0.033996582,-0.14227295,9.840584,-27.493477,-39.333534
1.4585939093828022E18,-0.2796173,0.86763,9.3004,-0.0370636,-0.030792236,-0.10809326,9.754372,-27.579117,-39.50119
1.4585939094029437E18,-0.26905823,1.3186035,9.087921,-0.07551575,-0.037200928,-0.09207153,9.754372,-27.579117,-39.584923
1.4585939094281208E18,-0.24819946,1.6613617,9.194275,-0.12571716,-0.024383545,-0.096343994,9.754372,-27.493668,-39.920044
1.458593909443227E18,-0.35986328,1.6856537,9.238495,-0.12998962,-0.011566162,-0.09741211,9.840584,-27.408028,-40.003777
1.4585939094633684E18,-0.23074341,1.8254089,9.487869,-0.09474182,0.03970337,-0.10916138,9.754562,-27.408028,-40.08751
1.4585939094835103E18,-0.38401794,1.9058838,9.057129,-0.050949097,0.04611206,-0.11022949,9.66835,-27.322388,-40.590286
1.4585939095036518E18,-0.44148254,1.9538574,8.65213,-0.085128784,0.042907715,-0.12197876,9.840775,-26.98021,-40.67421
1.4585939095237934E18,-0.5098877,1.8571625,8.649536,-0.107559204,0.065338135,-0.098480225,9.66835,-26.723671,-40.757942
1.458593909543935E18,-0.5445862,1.7932892,8.520905,-0.15242004,0.09738159,-0.068573,9.582329,-26.466942,-40.757942
1.4585939095640765E18,-0.45484924,1.7814331,8.582031,-0.20475769,0.092041016,-0.049346924,9.668541,-25.953674,-40.67421
1.458593909584218E18,-0.30397034,1.852829,8.739609,-0.23466492,0.114471436,-0.03652954,9.754562,-25.782585,-40.42282
1.4585939096043597E18,-0.3607483,1.9839478,8.740295,-0.26670837,0.09844971,-0.03439331,9.582329,-25.611496,-40.255165
1.4585939096245012E18,-0.426651,2.07312,8.880844,-0.27845764,0.07495117,-0.042938232,9.754562,-25.183678,-40.171432
1.458593909644643E18,-0.51304626,1.9589386,9.135376,-0.33613586,0.06427002,-0.042938232,10.013008,-25.012589,-39.920044
1.4585939096647846E18,-0.364563,1.8005981,9.578857,-0.34361267,0.057861328,-0.015167236,9.840584,-24.75586,-39.83612
1.4585939096849262E18,-0.20925903,1.6748962,10.1539,-0.22718811,0.015136719,0.0115356445,10.013008,-24.58477,-39.83612
1.4585939097101033E18,-0.16882324,1.7829132,9.847366,-0.12464905,0.0012512207,0.024353027,10.09903,-24.328232,-39.919853
1.4585939097252093E18,-0.13960266,1.8052368,9.693497,-0.10328674,-0.024383545,0.022216797,9.840584,-24.328232,-39.83593
1.458593909745351E18,-0.14517212,1.8535919,9.679428,-0.10115051,-0.051086426,0.029693604,9.582329,-24.071503,-39.83593
1.4585939097654925E18,-0.12693787,1.838913,9.821091,-0.054153442,-0.05001831,0.052124023,9.582329,-23.814964,-39.752197
1.4585939097856343E18,0.10166931,1.9041595,9.8732605,-0.011428833,-0.038269043,0.038238525,9.323883,-23.814964,-39.50081
1.458593909805776E18,0.018615723,2.0016022,9.780457,0.047317505,-0.05429077,0.027557373,9.065437,-23.643875,-39.417076
1.4585939098259174E18,-0.12371826,1.9954987,9.507095,0.051589966,-0.057495117,0.024353027,9.065437,-23.558426,-39.501
1.458593909846059E18,-0.17326355,2.0113373,9.403809,0.034500122,-0.084198,0.028625488,8.720779,-23.558426,-39.584923
1.4585939098662006E18,-0.23527527,1.911026,9.531082,0.0035247803,-0.053222656,0.008331299,8.462524,-23.387337,-39.50119
1.4585939098863421E18,-0.36039734,1.7711945,9.621933,-0.007156372,-0.019042969,0.031829834,8.290291,-23.301697,-39.417458
1.4585939099064837E18,-0.44148254,1.6627655,9.83934,-0.006088257,-0.032928467,0.06173706,8.548546,-23.216248,-39.249992
1.4585939099266253E18,-0.43510437,1.634552,9.955933,0.031295776,-0.069244385,0.11407471,8.548546,-23.130608,-39.249992
1.458593909946767E18,-0.39411926,1.8176727,9.989502,0.067611694,-0.07458496,0.18457031,8.548546,-23.130608,-39.417458
1.4585939099669087E18,-0.13237,2.177414,9.981476,0.09751892,-0.03933716,0.23156738,8.376312,-23.130608,-39.585114
1.4585939099870502E18,-0.020004272,2.4919586,9.839874,0.14772034,-0.046813965,0.23477173,8.290291,-23.216057,-39.50119
1.4585939100071918E18,-0.06706238,2.6522827,9.479843,0.13383484,-0.075653076,0.19631958,8.290291,-23.130417,-39.333534
1.4585939100273334E18,-0.1803894,2.433731,9.5408325,0.057998657,-0.059631348,0.15679932,8.290291,-23.130417,-39.16588
1.458593910047475E18,-0.17814636,1.8203888,10.043503,0.007797241,-0.075653076,0.11941528,8.290291,-23.301506,-39.24961
1.4585939100676165E18,0.068496704,0.94114685,10.408905,-0.0135650635,-0.08206177,0.08950806,7.9458237,-23.215866,-39.333344
1.4585939100877583E18,-0.026687622,0.4403534,10.679794,0.04197693,-0.035064697,0.09164429,7.601166,-23.386955,-39.165688
1.4585939101079E18,-0.05831909,0.43103027,10.189117,0.114608765,-0.04788208,0.13757324,7.1704865,-23.386955,-38.998222
1.4585939101280415E18,-0.01335144,0.72813416,9.431305,0.10820007,-0.08633423,0.14398193,6.9120407,-23.558044,-38.746834
1.458593910148183E18,0.042251587,1.1731567,9.085815,0.08576965,-0.111968994,0.16534424,6.567383,-23.472595,-38.746834
1.4585939101683246E18,0.26760864,1.6092529,8.8989105,0.096450806,-0.10021973,0.14611816,6.1367035,-23.387146,-38.746834
1.4585939101884662E18,0.473526,1.8917999,8.553787,0.12849426,-0.12799072,0.040374756,5.5336,-23.643684,-38.91449
1.4585939102086077E18,-0.088638306,1.7814331,8.37767,0.09111023,-0.21343994,-0.09207153,5.1029205,-23.643684,-38.998413
1.4585939102287493E18,-0.7420349,1.431488,8.768524,0.07829285,-0.22198486,-0.13052368,4.7584534,-23.814774,-39.2498
1.4585939102488911E18,-1.1503448,1.1169281,8.987595,0.029159546,-0.12371826,-0.102752686,4.58622,-23.814774,-39.50119
1.4585939102690327E18,-1.2461395,0.9517975,9.010239,-0.053085327,-0.057495117,-0.09741211,4.58622,-23.814774,-39.584923
1.4585939102891743E18,-1.4170074,0.66145325,9.218765,-0.13746643,0.032226563,-0.098480225,4.5001984,-23.900414,-39.417267
1.4585939103093158E18,-1.629303,0.46429443,9.579147,-0.16630554,0.06854248,-0.042938232,4.414177,-23.900414,-39.082146
1.4585939103294574E18,-1.6921997,0.5581665,9.666641,-0.1353302,0.12835693,0.060668945,4.414177,-23.814774,-38.830757
1.458593910349599E18,-1.2783661,0.9485626,9.535782,-0.09580994,0.07495117,0.1279602,4.758835,-23.387146,-38.6631
1.4585939103697405E18,-0.84007263,1.1951599,9.448944,-0.05949402,-0.0030212402,0.12261963,4.758835,-23.387146,-38.32779
1.458593910389882E18,-0.6713867,1.1963501,9.484863,-0.050949097,-0.020111084,0.1204834,4.8448563,-23.472786,-37.74128
1.458593910410024E18,-0.5140228,1.2335968,9.479263,3.2043457E-4,0.008728027,0.14718628,4.5864105,-23.301697,-37.322426
1.4585939104301655E18,-0.28019714,1.4007263,9.064987,0.02381897,-0.0051574707,0.14611816,4.6726227,-23.045158,-37.15477
1.458593910450307E18,-0.0050964355,1.5323792,8.729767,0.02168274,-0.058563232,0.076690674,4.5864105,-22.61734,-37.238503
1.458593910465413E18,-0.070999146,1.4941254,8.640396,-0.03919983,-0.087402344,0.01687622,4.327965,-22.61734,-37.15477
1.4585939104905902E18,-0.26905823,1.2212372,8.817429,-0.064834595,-0.08206177,-0.0034179688,4.2419434,-22.61734,-37.322426
1.4585939105107318E18,-0.38401794,1.1755524,8.865509,-0.0723114,-0.05429077,-0.010894775,3.8972855,-22.70279,-36.81965
1.4585939105308733E18,-0.48901367,1.2350464,8.840454,-0.07978821,-0.06817627,-0.014099121,3.8110733,-22.61734,-36.81965
1.4585939105510152E18,-0.63723755,1.3374481,8.743683,-0.093673706,-0.071380615,-0.022644043,3.7250519,-22.44625,-36.987114
1.4585939105711567E18,-0.8376312,1.4302521,8.8897705,-0.14707947,-0.059631348,-0.018371582,3.5528183,-22.275162,-37.070847
1.4585939105912983E18,-0.8967743,1.5278625,9.1249695,-0.14067078,-0.08099365,0.019012451,3.2943726,-22.360611,-36.81965
1.45859391061144E18,-0.79048157,1.715683,9.2534485,-0.12571716,-0.0703125,0.03503418,3.122139,-22.44625,-36.652184
1.4585939106315814E18,-0.5181122,1.9005432,9.2534485,-0.12892151,-0.040405273,-2.1362305E-4,2.8636932,-22.189522,-36.652184
1.458593910651723E18,-0.6467438,1.8963928,9.349243,-0.15028381,-0.030792236,-0.016235352,2.691269,-22.018433,-36.400795
1.4585939106718646E18,-0.74801636,2.0209808,9.483353,-0.15989685,-0.019042969,-0.0076904297,2.5190353,-21.761894,-36.652184
1.4585939106920061E18,-0.70970154,2.079422,9.619537,-0.16630554,-0.015838623,-0.015167236,2.4328232,-21.590805,-36.56845
1.458593910712148E18,-0.7252197,1.9538574,9.831406,-0.16844177,-0.03186035,-0.0034179688,2.4328232,-21.248627,-36.56845
1.4585939107322895E18,-0.6568451,1.8772278,10.235138,-0.142807,-0.04360962,-0.0066223145,2.6050568,-21.248627,-36.400986
1.458593910752431E18,-0.561676,1.7953644,10.211365,-0.111831665,-0.020111084,-0.022644043,2.6050568,-20.992088,-36.48472
1.4585939107725727E18,-0.5258484,1.7775726,10.395233,-0.055221558,-0.029724121,-0.024780273,2.5188446,-20.73536,-36.56845
1.4585939107927142E18,-0.5499115,1.7879639,10.179153,-0.0018157959,-0.028656006,-0.011962891,2.5188446,-20.39318,-36.56845
1.4585939108128558E18,-0.5380249,1.8190002,9.858063,0.029159546,-0.035064697,0.01473999,2.6050568,-20.307732,-36.56845
1.4585939108329974E18,-0.26905823,1.925827,9.694092,0.047317505,-0.067108154,0.045715332,2.7772903,-20.47882,-36.652184
1.458593910853139E18,-0.09663391,2.019394,10.027847,0.09965515,-0.060699463,0.047851563,2.6050568,-20.39318,-36.735916
1.4585939108732808E18,0.08984375,2.1493225,10.087448,0.21607971,-0.06604004,0.024353027,2.346611,-20.30754,-36.652184
1.4585939108934223E18,-0.12124634,2.3716278,9.875671,0.32289124,-0.12585449,0.030761719,2.1743774,-20.222092,-36.735916
1.458593910913564E18,0.26112366,2.7351074,9.447052,0.3560028,-0.19207764,-0.035461426,2.0881653,-20.050812,-36.987305
1.4585939109337055E18,0.45939636,2.682312,9.12558,0.19792175,-0.07885742,-0.17218018,1.9159317,-20.136452,-36.987305
1.458593910953847E18,0.35691833,1.8954926,9.202225,-0.08299255,0.049316406,-0.34521484,1.7436981,-20.39318,-36.987305
1.4585939109739886E18,-0.09538269,0.5901184,10.471069,-0.27845764,0.14331055,-0.3911438,1.5714645,-20.47863,-36.903572
1.4585939109941302E18,-0.74928284,-0.2578125,11.625626,-0.17805481,0.2810974,-0.22451782,1.2269974,-20.39299,-36.736107
1.458593911014272E18,-0.55874634,-0.034439087,11.774155,0.15412903,0.22662354,-0.03439331,1.4854431,-20.39299,-36.317253
1.4585939110344136E18,0.1713562,0.49290466,10.518356,0.39445496,0.094177246,-0.0023498535,1.399231,-20.47863,-36.149788
1.4585939110545551E18,0.3019867,0.9266815,9.154709,0.45854187,0.0909729,-0.07925415,1.5714645,-20.56408,-35.982132
1.4585939110746967E18,0.18894958,1.0993042,8.090149,0.3624115,0.054656982,-0.12838745,1.399231,-20.991898,-35.563087
1.4585939110948383E18,0.2780609,0.93222046,7.803665,0.14772034,0.116607666,-0.16363525,1.5714645,-21.162987,-35.3117
1.4585939111149798E18,0.31602478,0.64805603,8.447571,0.0045928955,0.16040039,-0.17111206,2.088356,-21.505165,-35.144043
1.4585939111351214E18,0.36315918,0.5616913,8.883057,0.04197693,0.09310913,-0.17111206,2.1743774,-21.590805,-35.06012
1.458593911155263E18,0.16175842,0.62054443,8.61348,0.024887085,0.016204834,-0.1882019,2.4328232,-21.676445,-34.80873
1.4585939111754048E18,-0.05831909,0.7365875,8.619827,-0.04347229,-0.001953125,-0.15081787,2.4328232,-21.762085,-34.80873
1.4585939111955464E18,0.1282196,0.7519226,8.860199,-0.16096497,0.0418396,-0.14120483,2.5190353,-21.933174,-34.892464
1.458593911215688E18,-0.07987976,0.71694946,9.578552,-0.2197113,0.11767578,-0.15829468,2.5190353,-22.018814,-34.892464
1.4585939112358295E18,-0.42723083,0.71347046,9.981476,-0.16523743,0.18817139,-0.1177063,2.777481,-22.104454,-34.725
1.458593911255971E18,-0.61390686,0.95928955,9.731583,-0.09687805,0.24157715,-0.055755615,2.6914597,-21.933365,-34.725
1.4585939112761126E18,-0.27656555,1.3524475,9.287613,-0.0370636,0.2244873,-0.051483154,2.6052475,-21.591187,-34.80892
1.4585939112962542E18,-0.10545349,1.565506,8.877029,-0.050949097,0.22021484,-0.10916138,2.6914597,-21.591187,-34.641457
1.458593911316396E18,-0.47688293,1.4203491,8.741699,-0.064834595,0.1817627,-0.120910645,2.777481,-21.591187,-34.72519
1.4585939113365376E18,-0.70513916,1.2778625,8.827408,-0.091537476,0.14117432,-0.07498169,2.8636932,-21.420097,-34.641457
1.4585939113566792E18,-0.46466064,1.1441498,9.095139,-0.13960266,0.1326294,-0.008758545,3.0359268,-21.420097,-34.306335
1.4585939113768207E18,-0.20785522,1.1492157,9.356888,-0.14707947,0.094177246,0.033966064,3.2083511,-21.420097,-34.222603
1.4585939113969623E18,-8.392334E-4,1.1875305,9.361282,-0.15028381,0.063201904,0.023284912,3.2083511,-21.249008,-34.47399
1.458593911417104E18,-0.045394897,1.2258453,9.579147,-0.1214447,-8.8500977E-4,0.030761719,3.3805847,-20.90664,-34.641647
1.4585939114372454E18,-0.14956665,1.3125305,9.539871,-0.089401245,0.010864258,0.049987793,3.3805847,-20.821,-34.641647
1.458593911457387E18,-0.15411377,1.4242096,9.410858,-0.0861969,0.030090332,0.08416748,3.3805847,-20.64991,-34.809113
1.4585939114724933E18,-0.121032715,1.4905701,9.462463,-0.05949402,0.045043945,0.07348633,3.4667969,-20.56427,-34.72538
1.4585939114976704E18,-0.27366638,1.4794922,9.3155365,-0.040267944,0.054656982,0.062805176,3.3805847,-20.39299,-34.72538
1.458593911517812E18,-0.27368164,1.5779724,9.219757,-0.028518677,0.065338135,0.06600952,3.5528183,-20.050621,-34.892845
1.4585939115379535E18,-0.2016449,1.6572723,9.0902405,-0.035995483,0.08670044,0.052124023,3.380394,-19.964981,-35.0605
1.458593911558095E18,-0.40026855,1.6782837,9.181274,-0.046676636,0.09631348,0.052124023,3.5526276,-19.708252,-34.809113
1.4585939115782367E18,-0.48738098,1.654007,9.202667,-0.058425903,0.07495117,0.09698486,3.5526276,-19.622803,-34.72538
1.4585939115983782E18,-0.26905823,1.6664886,9.518402,-0.07017517,0.10165405,0.107666016,3.4664154,-19.622803,-34.809113
1.4585939116185198E18,-0.11579895,1.6856537,9.670105,-0.035995483,0.09631348,0.09484863,3.4664154,-19.366074,-34.893036
1.4585939116386616E18,-0.20535278,1.7196503,9.5686035,-0.03492737,0.06213379,0.09591675,3.4664154,-19.109344,-34.893036
1.4585939116588032E18,-0.14035034,1.7116852,9.6297455,-0.040267944,0.071746826,0.109802246,3.3802032,-19.023895,-34.97677
1.4585939116789448E18,-0.09663391,1.6664886,9.761154,-0.07444763,0.09738159,0.11941528,3.3802032,-18.852806,-34.893036
1.4585939116990863E18,-0.09663391,1.5877686,9.834686,-0.050949097,0.07388306,0.11834717,3.5526276,-18.510628,-34.641647
1.458593911719228E18,-0.207901,1.6090088,9.831909,-0.046676636,0.07388306,0.13330078,3.6388397,-18.339539,-34.809113
1.4585939117393695E18,-0.3265381,1.6808777,9.861771,-0.038131714,0.063201904,0.15466309,3.5526276,-18.253899,-34.557724
1.458593911759511E18,-0.40953064,1.7728882,9.794159,-0.0039520264,0.09844971,0.18884277,3.4666061,-18.253899,-34.390068
1.4585939117796529E18,-0.55644226,1.7009125,9.52916,-0.022109985,0.12728882,0.20272827,3.6388397,-18.168259,-34.13868
1.4585939117997944E18,-0.82510376,1.4356842,9.3806,-0.08406067,0.16680908,0.21234131,3.7250519,-18.168259,-34.306335
1.458593911819936E18,-1.1207123,0.92170715,9.138504,-0.23466492,0.25759888,0.23904419,3.7250519,-18.253708,-34.222603
1.4585939118400776E18,-1.5772247,0.4267273,9.510605,-0.45256042,0.43597412,0.3234253,3.5528183,-18.339348,-34.39026
1.4585939118602191E18,-1.7473145,0.0713501,10.155838,-0.45469666,0.38363647,0.4088745,3.380394,-18.168259,-34.39026
1.4585939118803607E18,-1.4248657,-0.09098816,10.71846,-0.28593445,0.19030762,0.47296143,3.2941818,-18.168259,-34.39026
1.4585939119005023E18,-1.1311798,0.13900757,10.224808,-0.08833313,0.01940918,0.46655273,3.2941818,-18.168259,-34.557724
1.4585939119156086E18,-1.0670624,0.33287048,9.473434,-0.113967896,-0.015838623,0.47937012,3.5526276,-17.82608,-34.222603
1.4585939119407857E18,-0.76197815,0.5674896,9.635742,-0.17164612,0.011932373,0.5124817,3.380394,-17.82608,-34.47399
1.4585939119609272E18,-0.30004883,0.88682556,9.913666,-0.08192444,1.8310547E-4,0.5263672,3.1219482,-17.483902,-34.557724
1.4585939119810688E18,0.20147705,1.1699219,9.797531,0.049453735,-0.07778931,0.40994263,2.9497147,-17.227364,-34.641457
1.4585939120012104E18,0.24571228,1.3982697,9.365921,0.1306305,-0.15148926,0.18457031,2.777481,-16.970634,-34.557533
1.458593912021352E18,-0.34036255,1.1847382,9.061874,0.07081604,-0.17819214,-0.004486084,2.6914597,-16.884995,-34.725
1.4585939120414935E18,-0.8930359,0.74838257,9.332733,-0.0018157959,-0.09487915,-0.078186035,2.3469925,-16.799355,-34.47361
1.458593912061635E18,-1.1644135,0.41220093,9.68782,-0.08299255,0.0044555664,-0.12731934,2.0887375,-16.799355,-34.47361
1.4585939120817766E18,-1.3015289,0.2182312,10.3107605,-0.04560852,0.026885986,-0.1315918,1.7440796,-16.884804,-34.725
1.4585939121019185E18,-1.4353333,0.22721863,10.40535,0.037704468,0.042907715,-0.098480225,1.3996124,-16.884804,-34.47361
1.45859391212206E18,-1.3688049,0.45178223,9.9956665,0.12528992,0.04611206,-0.049346924,1.3134003,-16.970444,-34.389877
1.4585939121422016E18,-1.2269745,0.6381378,9.483353,0.14237976,0.033294678,-0.03225708,1.3134003,-16.799355,-34.389877
1.4585939121623432E18,-1.3118134,0.8645172,9.2508545,0.2011261,-0.02331543,-0.021575928,1.3994217,-16.799355,-34.389877
1.4585939121824847E18,-1.2846985,1.0628815,8.750732,0.23210144,-0.09701538,-0.008758545,1.3132095,-16.799355,-34.222412
1.4585939122026263E18,-1.1305084,1.1399689,8.386032,0.18403625,-0.09701538,-0.026916504,1.140976,-16.628265,-34.306335
1.458593912222768E18,-1.0737152,1.072586,8.276382,0.1242218,-0.08312988,-0.05682373,1.140976,-16.628265,-34.13887
1.4585939122429097E18,-1.0388184,1.0185242,8.598663,0.057998657,-0.07458496,-0.09527588,1.0549545,-16.799355,-34.222603
1.4585939122630513E18,-0.91851807,0.9940033,8.710342,0.029159546,-0.075653076,-0.12731934,1.2271881,-16.970444,-34.390068
1.4585939122831928E18,-0.8944092,0.98905945,8.8250885,0.007797241,-0.07244873,-0.16149902,1.1411667,-16.970444,-34.13868
1.4585939123033344E18,-0.8629608,1.0342712,8.826538,-0.04560852,-0.040405273,-0.19674683,1.1411667,-17.226982,-33.971024
1.458593912323476E18,-0.9587555,1.0676422,9.027924,-0.04133606,-0.07244873,-0.19888306,1.1411667,-17.312622,-33.971024
1.4585939123436175E18,-0.8486023,1.1300507,8.985245,-0.050949097,-0.098083496,-0.20101929,1.2273788,-17.398262,-33.971024
1.458593912363759E18,-0.8916321,1.1539612,9.095291,-0.0723114,-0.13012695,-0.2298584,1.2273788,-17.483902,-33.8871
1.4585939123839007E18,-1.1193695,1.1948547,9.260788,-0.069107056,-0.16323853,-0.21383667,1.3134003,-17.312813,-33.8871
1.4585939124040425E18,-1.1320953,1.3033752,9.396698,-0.06163025,-0.18139648,-0.20635986,1.2271881,-17.141724,-33.8871
1.458593912424184E18,-1.0236053,1.4719849,9.5408325,-0.038131714,-0.19741821,-0.19674683,1.140976,-16.970634,-33.719635
1.4585939124443256E18,-1.0162354,1.589859,9.622055,-0.033859253,-0.19100952,-0.19781494,1.399231,-17.227173,-33.803368
1.4585939124644672E18,-1.0838928,1.7092896,9.847366,0.015274048,-0.1824646,-0.20529175,1.2269974,-17.056084,-33.803368
1.4585939124795735E18,-1.0034332,1.7303619,9.757919,0.05265808,-0.18780518,-0.21170044,0.8825302,-17.056084,-33.635902
1.4585939125047503E18,-0.85243225,1.862381,9.666336,0.07081604,-0.17605591,-0.23306274,0.71029663,-17.141533,-33.635902
1.458593912524892E18,-0.9621887,1.861496,9.591446,0.092178345,-0.16430664,-0.2715149,0.6240845,-17.055893,-33.55217
1.4585939125450337E18,-0.9300232,1.8580627,9.5121,0.090042114,-0.17285156,-0.2800598,0.2796173,-17.312622,-33.468246
1.4585939125651753E18,-0.9310608,1.8005981,9.474823,0.067611694,-0.15682983,-0.30462646,0.36582947,-17.398262,-32.96547
1.4585939125853169E18,-0.9075775,1.7685547,9.489975,0.037704468,-0.13973999,-0.31851196,0.10757446,-17.227173,-32.96547
1.4585939126054584E18,-0.90605164,1.7048035,9.689346,0.035568237,-0.15148926,-0.32598877,-0.2368927,-17.141724,-32.546425
1.4585939126256E18,-0.97792053,1.6281738,9.736847,0.04197693,-0.1611023,-0.33666992,-0.2368927,-17.227364,-32.546425
1.4585939126457416E18,-0.87464905,1.5515442,9.797379,0.05479431,-0.17819214,-0.32919312,-0.32291412,-17.398453,-32.71389
1.4585939126658831E18,-0.8053436,1.5004883,9.930435,0.10179138,-0.18887329,-0.32919312,-0.58135986,-17.398453,-32.881355
1.4585939126860247E18,-0.8520508,1.4557495,9.829117,0.15733337,-0.22518921,-0.32492065,-0.58135986,-17.740631,-32.965088
1.4585939127061665E18,-0.91755676,1.6612549,9.7486725,0.17655945,-0.25402832,-0.29714966,-0.667572,-17.569542,-32.965088
1.4585939127313434E18,-0.4152069,1.8233185,9.407623,0.16160583,-0.5274658,-0.3217163,-0.92601776,-17.740631,-33.04901
1.4585939127464497E18,0.12574768,1.9832001,9.815598,0.09965515,-0.65563965,-0.37298584,-1.0984421,-18.16845,-32.797623
1.4585939127665912E18,0.8470917,1.3500977,10.211487,-0.052017212,-0.50183105,-0.49047852,-1.2706757,-18.08281,-32.96528
1.4585939127867328E18,1.0305481,0.55433655,11.0233,-0.19514465,-0.12478638,-0.5524292,-1.4429092,-18.339348,-32.881546
1.4585939128068744E18,0.24389648,0.37069702,11.87384,0.05052185,0.06427002,-0.5032959,-1.5291214,-18.424797,-32.462692
1.458593912827016E18,7.7819824E-4,0.4299469,10.239746,0.32289124,-0.001953125,-0.43707275,-1.6153336,-18.595886,-31.959915
1.4585939128471575E18,-0.24150085,0.64190674,8.819687,0.32929993,-0.014770508,-0.41036987,-1.7875671,-18.595886,-31.624794
1.4585939128672993E18,-0.4405365,0.8174591,8.096924,0.2790985,-0.07992554,-0.36657715,-1.701355,-18.852425,-31.289673
1.458593912887441E18,-0.20056152,0.7495575,7.9397736,0.14772034,-0.12478638,-0.36657715,-1.701355,-18.766785,-31.122017
1.4585939129075825E18,0.018310547,0.4147644,8.338226,0.006729126,-0.08206177,-0.38153076,-1.5289307,-18.595695,-31.038094
1.458593912927724E18,-0.110961914,0.04307556,8.984833,-0.10435486,-0.006225586,-0.36550903,-1.3566971,-18.938065,-31.121826
1.4585939129478656E18,-0.48190308,-0.101760864,9.60968,-0.10115051,0.016204834,-0.27044678,-1.4429092,-19.023705,-30.95417
1.4585939129680072E18,-0.33970642,0.07156372,9.792282,-0.04988098,0.030090332,-0.15402222,-1.5291214,-19.109344,-30.870247
1.4585939129881487E18,-0.29711914,0.3651123,9.60582,3.2043457E-4,0.024749756,-0.096343994,-1.6151428,-19.194984,-30.786514
1.4585939130082906E18,-0.28822327,0.58065796,9.234573,0.020614624,0.007659912,-0.05041504,-1.5289307,-19.194984,-30.786514
1.458593913028432E18,-0.31729126,0.789505,9.056931,0.002456665,0.026885986,-0.008758545,-1.5289307,-19.280624,-30.870247
1.4585939130485737E18,-0.21159363,1.0543365,8.83107,-0.014633179,0.038635254,0.025421143,-1.4427185,-19.280624,-30.786514
1.4585939130687153E18,-0.033081055,1.2319336,8.66391,-0.05949402,0.030090332,0.017944336,-1.4427185,-19.622803,-30.535316
1.4585939130888568E18,-0.14015198,1.2501984,8.861542,-0.09687805,0.036499023,0.020080566,-1.5287399,-19.537163,-30.116463
1.4585939131089984E18,-0.31532288,1.2258453,9.135223,-0.10649109,0.057861328,0.06387329,-1.4425278,-19.366074,-30.116463
1.45859391312914E18,-0.24977112,1.2451324,9.157669,-0.09901428,0.07067871,0.11514282,-1.2701035,-19.451714,-30.03273
1.4585939131492815E18,-0.12815857,1.2518005,9.063126,-0.109695435,0.051452637,0.13116455,-1.0116577,-19.622803,-30.200386
1.4585939131694234E18,0.050430298,1.2258453,9.132324,-0.13319397,0.04397583,0.13009644,-1.0978699,-19.537354,-30.368042
1.458593913189565E18,-0.0050201416,1.1342163,9.3450775,-0.13105774,0.022613525,0.15786743,-1.0978699,-19.537354,-30.368042
1.4585939132097065E18,0.0037994385,1.1590576,9.440384,-0.1353302,0.053588867,0.190979,-1.2702942,-19.708633,-30.87082
1.458593913229848E18,0.09048462,1.2258453,9.584061,-0.116104126,0.092041016,0.22409058,-1.6149521,-19.623184,-31.541061
1.4585939132499896E18,0.16004944,1.3560638,9.559982,-0.064834595,0.071746826,0.21981812,-2.2180557,-19.708824,-32.37896
1.4585939132701312E18,0.2980957,1.4379272,9.330093,-0.024246216,0.0418396,0.21340942,-2.562523,-19.965553,-33.133125
1.4585939132902728E18,0.38731384,1.486969,9.416733,-0.012496948,0.045043945,0.19525146,-2.7349472,-19.879913,-33.719635
1.4585939133104143E18,0.38232422,1.5661011,9.44046,-7.4768066E-4,0.08456421,0.20272827,-2.8211594,-19.623184,-33.971024
1.4585939133305562E18,0.4547882,1.7198029,9.306793,-0.025314331,0.11126709,0.17175293,-2.9073715,-19.794273,-33.971024
1.4585939133506977E18,0.37893677,1.6281738,9.410675,-0.028518677,0.114471436,0.15252686,-2.8211594,-19.623184,-33.88729
1.4585939133708408E18,0.3486023,1.6044006,9.464203,-0.0050201416,0.07922363,0.15679932,-2.9071808,-19.366455,-33.384514
1.4585939133909824E18,0.42781067,1.7503052,9.457016,-0.026382446,0.06854248,0.16107178,-2.7349472,-19.280815,-32.798004
1.458593913411124E18,0.4370575,1.910965,9.456909,-0.04560852,0.09738159,0.14932251,-2.4765015,-18.938446,-31.960106
1.4585939134312658E18,0.45895386,1.9812317,9.713257,-0.07551575,0.12515259,0.15145874,-2.0458221,-18.852806,-31.289864
1.4585939134514074E18,0.44477844,2.0013275,9.866516,-0.031723022,0.116607666,0.15252686,-2.1318436,-18.681717,-30.87101
1.458593913471549E18,0.42063904,1.9980621,9.707367,0.008865356,0.094177246,0.12582397,-2.1318436,-18.510628,-30.368233
1.4585939134916905E18,0.31629944,1.9591675,9.579147,-0.009292603,0.087768555,0.11834717,-2.217865,-18.339539,-30.200577
1.458593913511832E18,0.216568,1.9730225,9.802368,-0.019973755,0.07067871,0.13223267,-2.217865,-18.253899,-30.368233
1.4585939135319736E18,0.114105225,1.9032135,10.045776,-0.027450562,0.10699463,0.15252686,-2.3040771,-18.424988,-30.368233
1.4585939135521152E18,-0.03916931,1.9921875,10.115738,0.029159546,0.1048584,0.17068481,-2.3040771,-18.253899,-30.451965
1.4585939135722568E18,-0.09663391,2.107132,9.914001,0.05052185,0.065338135,0.16000366,-2.217865,-18.16845,-30.451965
1.4585939135923986E18,-0.19242859,1.8321075,9.820969,-0.03492737,0.03970337,0.107666016,-2.4763107,-18.08281,-30.200577
1.4585939136125402E18,-0.46525574,1.1688538,10.407318,-0.08833313,0.047180176,0.09057617,-2.3040771,-18.339539,-29.949188
1.4585939136326817E18,-0.4370575,0.36231995,10.955521,-0.09260559,0.02368164,0.105529785,-2.3902893,-18.596268,-30.200577
1.4585939136528233E18,-0.5675812,-0.29508972,11.59819,0.008865356,0.03543091,0.1696167,-2.4765015,-18.681717,-30.033112
1.4585939136729649E18,-0.71614075,-0.26835632,11.168686,0.18403625,0.03970337,0.2828369,-2.8211594,-18.852806,-29.865456
1.4585939136931064E18,-0.5856323,0.17945862,10.17485,0.22782898,-0.014770508,0.36080933,-2.8211594,-19.109535,-29.949188
1.458593913713248E18,-0.31558228,0.59916687,9.631073,0.24705505,0.0012512207,0.4013977,-2.993393,-19.280624,-29.949188
1.458593913738425E18,0.019805908,0.9974518,9.195236,0.26200867,0.008728027,0.39071655,-3.079605,-19.622803,-29.865456
1.4585939137535314E18,0.10896301,1.1721497,8.904831,0.32289124,-0.05001831,0.33624268,-3.1658173,-19.708443,-29.949188
1.458593913773673E18,0.16194153,1.302475,8.400757,0.3698883,-0.20275879,0.20593262,-3.424263,-19.793892,-29.781532
1.4585939137938145E18,-0.06147766,1.2556763,7.9836884,0.31755066,-0.288208,0.08843994,-3.5102844,-19.708252,-29.446411
1.458593913813956E18,-0.20471191,1.0350037,7.874054,0.1658783,-0.2390747,0.004058838,-3.5102844,-19.879532,-29.362488
1.4585939138340977E18,-0.258667,0.92970276,7.875702,-0.046676636,-0.08847046,-0.049346924,-3.7687302,-20.2219,-29.1111
1.4585939138542392E18,-0.045425415,0.6680298,8.521835,-0.29981995,0.045043945,-0.12411499,-3.7687302,-20.2219,-28.85971
1.4585939138743808E18,0.012878418,0.41575623,9.778763,-0.30516052,0.1048584,-0.18392944,-3.7687302,-20.2219,-28.52459
1.4585939138945226E18,-0.5010376,0.4166565,10.215912,-0.2058258,0.116607666,-0.20742798,-3.7687302,-20.39299,-28.356934
1.4585939139146642E18,-0.9587555,0.5453491,10.15889,-0.089401245,0.067474365,-0.123046875,-3.8547516,-20.47863,-28.273201
1.4585939139348058E18,-1.0444183,0.7863312,9.65918,-0.014633179,0.03756714,-0.037597656,-3.682518,-20.30754,-28.357124
1.4585939139549473E18,-1.0737152,1.101532,9.374207,0.0035247803,0.056793213,0.030761719,-3.8547516,-20.56427,-28.440857
1.458593913975089E18,-0.9035187,1.4045105,9.087723,0.059066772,-0.0030212402,0.07241821,-3.8547516,-20.47863,-28.440857
1.4585939139952305E18,-0.6816559,1.4454651,8.881958,0.07829285,-0.10876465,0.06387329,-3.6823273,-20.39299,-28.440857
1.458593914015372E18,-0.5181122,1.3814545,9.028381,0.055862427,-0.07458496,0.023284912,-3.596115,-20.2219,-28.357124
1.4585939140355136E18,-0.49073792,1.4229584,9.097488,0.05052185,-0.030792236,0.008331299,-3.596115,-20.136261,-28.52478
1.4585939140556554E18,-0.44148254,1.5617371,9.167877,0.02381897,-0.051086426,-0.021575928,-3.509903,-20.2219,-28.608513
1.458593914075797E18,-0.42658997,1.5132294,9.181076,0.013137817,-0.069244385,-0.07711792,-3.3376694,-20.2219,-28.52478
1.4585939140959386E18,-0.4522705,1.3791199,9.25885,-0.030654907,-0.026519775,-0.11343384,-3.6821365,-20.30754,-28.608513
1.45859391411608E18,-0.6985626,1.3136139,9.36351,-0.007156372,-0.0211792,-0.12197876,-3.6821365,-20.050812,-28.608513
1.4585939141362217E18,-0.824646,1.4196472,9.065887,-0.011428833,-0.044677734,-0.09954834,-3.85437,-19.965172,-28.776169
1.4585939141563633E18,-0.87538147,1.5323792,8.793655,-0.07978821,-0.053222656,-0.07925415,-3.85437,-19.879723,-28.776169
1.4585939141765048E18,-1.0581818,1.5934753,8.955734,-0.13639832,-0.058563232,-0.033325195,-4.0266037,-19.965172,-28.776169
1.4585939141966467E18,-1.0162354,1.617981,9.095108,-0.13960266,-0.091674805,0.01687622,-4.1988373,-20.136452,-28.776169
1.4585939142167882E18,-0.83862305,1.7431183,9.2534485,-0.13212585,-0.11090088,0.030761719,-4.457283,-20.136452,-28.943825
1.4585939142369298E18,-0.7814026,1.9155426,9.369003,-0.13319397,-0.12905884,0.029693604,-4.457283,-20.136452,-29.027557
1.4585939142570714E18,-0.7903595,1.9462738,9.448608,-0.14601135,-0.120513916,0.017944336,-4.2850494,-20.136452,-28.692436
1.458593914277213E18,-0.7863312,1.8565674,9.717743,-0.19621277,-0.044677734,0.0029907227,-4.4574738,-20.47882,-28.608704
1.4585939142973545E18,-0.80049133,1.6997986,10.161804,-0.18019104,0.0033874512,0.004058838,-4.28524,-20.6501,-28.441048
1.458593914317496E18,-0.715271,1.5842896,10.399841,-0.10649109,0.04397583,-0.0023498535,-4.1992188,-20.47882,-28.524971
1.4585939143376376E18,-0.6431732,1.4940643,10.164001,-0.012496948,-8.8500977E-4,-0.020507813,-4.1992188,-20.307732,-28.608704
1.4585939143577795E18,-0.5320282,1.4557495,9.702759,-0.0050201416,0.002319336,-0.037597656,-4.1130066,-20.222092,-28.52478
1.458593914377921E18,-0.61390686,1.4129333,9.487854,-0.012496948,-8.8500977E-4,-0.019439697,-4.1992188,-19.965363,-28.52478
1.4585939143980626E18,-0.55644226,1.3671417,9.715652,0.033432007,-0.040405273,0.0061950684,-4.4576645,-20.136452,-28.357124
1.4585939144182042E18,-0.4698639,1.5721741,9.665741,0.1028595,-0.05429077,0.017944336,-4.3714523,-20.136452,-28.273201
1.4585939144383457E18,-0.26823425,2.042984,9.436722,0.1455841,-0.07992554,0.01687622,-4.199028,-20.136452,-28.189278
1.4585939144584873E18,0.26652527,2.2029266,9.009399,0.09538269,-0.12905884,-0.080322266,-4.2850494,-20.39299,-28.356934
1.4585939144786289E18,0.27197266,2.0443115,9.133896,-0.060562134,-0.15042114,-0.21917725,-4.457283,-20.64972,-28.105545
1.4585939144987707E18,0.33935547,1.4492645,9.503128,-0.25602722,-0.12478638,-0.31210327,-4.3712616,-20.820808,-27.93808
1.4585939145189123E18,0.17662048,0.44288635,10.82428,-0.4728546,0.09524536,-0.3494873,-4.28524,-20.906448,-27.770615
1.4585939145390538E18,-0.4627533,0.084121704,12.350372,-0.2474823,0.27682495,-0.1807251,-4.0267944,-21.163177,-27.435493
1.4585939145591954E18,-0.2790985,0.44947815,11.354431,0.15306091,0.18603516,-0.042938232,-3.9405823,-21.163177,-27.268028
1.458593914579337E18,0.28833008,0.93847656,9.386795,0.39231873,0.0044555664,-0.06750488,-4.0267944,-21.077538,-27.268028
1.4585939145994785E18,0.13146973,1.0284729,8.042923,0.30473328,-0.02545166,-0.16149902,-3.8545609,-21.077538,-27.184296
1.45859391461962E18,-0.10153198,0.6322937,7.7925415,0.12208557,-0.042541504,-0.1743164,-3.5963058,-20.821,-26.932907
1.4585939146397617E18,0.16799927,0.27700806,8.414398,-0.08192444,0.06213379,-0.15081787,-3.1656265,-20.821,-26.932907
1.4585939146599035E18,0.5793457,-0.058639526,9.42218,-0.1214447,0.15185547,-0.15829468,-2.9071808,-20.64991,-26.848984
1.458593914680045E18,0.46533203,-0.032226563,9.8537445,-0.1000824,0.15719604,-0.16577148,-2.8209686,-20.821,-27.100372
1.4585939147001866E18,0.07696533,0.3523407,9.935379,-0.007156372,0.09524536,-0.14868164,-2.7347565,-20.821,-27.184105
1.4585939147203282E18,-0.018844604,0.5271454,9.676117,-0.012496948,0.087768555,-0.071777344,-2.648735,-20.73536,-27.100182
1.4585939147404698E18,0.28434753,0.6732178,9.677902,-0.040267944,0.13796997,-0.03866577,-2.4765015,-21.077538,-27.184105
1.4585939147606113E18,0.39111328,0.8765869,9.794296,3.2043457E-4,0.18069458,-0.06323242,-2.304268,-20.906448,-27.016449
1.458593914780753E18,0.14283752,1.0582123,9.507309,0.0750885,0.17428589,-0.07284546,-2.3902893,-20.991898,-26.848793
1.4585939148008945E18,-0.043441772,1.144928,9.036377,0.08042908,0.1678772,-0.06750488,-2.3902893,-21.077538,-26.848793
1.4585939148210363E18,-0.006790161,1.2331238,8.526779,0.029159546,0.16253662,-0.073913574,-2.4765015,-21.419716,-27.016449
1.4585939148411779E18,0.0012359619,1.1129761,8.6085205,-0.038131714,0.15826416,-0.102752686,-2.2180557,-21.248627,-26.848793
1.4585939148613194E18,-0.2315216,0.8423004,8.937927,-0.056289673,0.15292358,-0.09741211,-2.2180557,-21.248627,-26.681137
1.458593914881461E18,-0.47979736,0.6634979,9.132309,-0.04560852,0.09631348,-0.03652954,-1.95961,-21.334267,-26.513672
1.4585939149016026E18,-0.3321228,0.6016083,9.34053,-0.04774475,0.10058594,0.017944336,-1.95961,-21.334267,-26.429749
1.458593914921744E18,-0.12854004,0.6511078,9.464203,-0.044540405,0.09631348,0.031829834,-2.0458221,-21.505356,-26.513672
1.4585939149418857E18,-0.13494873,0.8066101,9.485611,-0.04133606,0.040771484,0.048919678,-1.7873764,-21.419907,-26.597595
1.4585939149620275E18,-0.12687683,0.93847656,9.5216675,-0.048812866,0.026885986,0.07348633,-1.95961,-21.505356,-26.597595
1.458593914982169E18,-0.088409424,1.0808105,9.636627,-0.031723022,0.018341064,0.099121094,-1.7011642,-21.334267,-26.681328
1.4585939150023107E18,-0.029037476,1.246109,9.511551,0.0045928955,0.01727295,0.1204834,-1.95961,-21.676445,-26.597595
1.4585939150224522E18,0.08016968,1.5411682,9.279999,-0.0028839111,0.015136719,0.11834717,-1.7873764,-21.676445,-26.513863
1.4585939150425938E18,0.056625366,1.7380676,9.377472,-0.012496948,0.011932373,0.103393555,-1.7011642,-21.676445,-26.681328
1.4585939150627354E18,0.04258728,1.8150787,9.329636,0.013137817,0.02368164,0.11193848,-1.5287399,-21.676445,-26.681328
1.458593915082877E18,-0.016433716,1.7622833,9.2534485,0.0045928955,0.0140686035,0.11514282,-1.6147614,-21.676445,-26.597404
1.4585939151030185E18,0.04763794,1.7763367,9.239395,0.014205933,0.018341064,0.12261963,-1.7009735,-21.932983,-26.513481
1.4585939151231603E18,-8.392334E-4,1.858078,9.0581665,-0.031723022,0.034362793,0.11193848,-1.4425278,-21.761894,-26.345825
1.458593915143302E18,-0.09828186,1.7502441,9.216782,-0.09474182,0.049316406,0.11514282,-1.7869949,-21.847534,-26.17836
1.4585939151634435E18,-0.1227417,1.570694,9.633301,-0.109695435,0.029022217,0.12582397,-1.6147614,-21.676445,-26.094437
1.458593915183585E18,0.04031372,1.4994965,9.910538,-0.069107056,-0.006225586,0.17282104,-1.6147614,-21.505356,-26.094437
1.4585939152037266E18,0.28652954,1.5044098,9.847366,-0.069107056,0.030090332,0.17282104,-1.5287399,-21.334267,-26.345825
1.4585939152238682E18,0.23664856,1.5924835,9.916397,-0.06376648,0.055725098,0.17282104,-1.6149521,-21.077728,-26.429749
1.4585939152440097E18,0.02796936,1.7142944,9.9192505,-0.01890564,0.049316406,0.16320801,-1.5289307,-20.90664,-26.681137
1.4585939152641513E18,-0.23817444,1.7888489,9.7855835,0.011001587,0.05038452,0.17282104,-1.5289307,-20.82119,-26.681137
1.458593915284293E18,-0.54841614,2.0134125,9.806976,0.056930542,0.029022217,0.21661377,-1.5289307,-20.6501,-26.76487
1.4585939153044347E18,-0.55189514,2.149994,9.493423,0.04411316,-0.044677734,0.24224854,-1.1844635,-20.307732,-26.513481
1.4585939153245763E18,-0.37457275,1.863205,9.646072,-0.056289673,-0.067108154,0.19525146,-1.3566971,-20.222092,-26.513481
1.4585939153447178E18,-0.17854309,1.0018005,9.949814,-0.20048523,-0.04574585,0.12261963,-1.4429092,-20.136452,-26.429749
1.4585939153648594E18,-0.33940125,-0.015319824,11.0651245,-0.28807068,0.03970337,0.08843994,-1.5289307,-20.050812,-26.17836
1.458593915385001E18,-0.9803009,-0.64112854,11.944229,-0.1492157,0.13049316,0.20059204,-1.4427185,-19.965172,-26.094437
1.4585939154051425E18,-1.1745911,-0.42684937,11.597061,0.10820007,0.04611206,0.33944702,-1.5287399,-20.050621,-25.843048
1.4585939154252844E18,-0.653656,0.24980164,10.254959,0.32929993,0.030090332,0.44519043,-1.4425278,-19.708252,-25.759315
1.458593915445426E18,0.047790527,0.9814148,8.537415,0.34425354,0.0909729,0.3725586,-1.4425278,-19.708252,-25.759315
1.4585939154655675E18,0.22904968,1.3669434,7.4246216,0.22355652,0.11340332,0.19845581,-1.7009735,-19.708252,-25.843048
1.458593915485709E18,0.036849976,1.2345123,7.151306,-0.007156372,0.09310913,-0.033325195,-1.6149521,-19.537163,-25.759315
1.4585939155058506E18,-0.35977173,0.5700989,8.098389,-0.15989685,0.087768555,-0.16149902,-1.7009735,-19.451523,-25.675583
1.4585939155259922E18,-0.87901306,0.12892151,9.150543,-0.19407654,0.12408447,-0.19674683,-1.9594193,-19.537163,-25.508118
1.4585939155461338E18,-1.1895599,-0.13438416,9.3701935,-0.19300842,0.116607666,-0.1807251,-2.0456314,-19.622803,-25.424385
1.4585939155662753E18,-1.408844,-0.057754517,9.750977,-0.18339539,0.11553955,-0.14013672,-1.8733978,-19.280624,-25.508308
1.4585939155864172E18,-1.4568787,0.11798096,9.947739,-0.15242004,0.1262207,-0.073913574,-1.8733978,-19.366264,-25.592041
1.4585939156065587E18,-1.4440613,0.2487793,9.930328,-0.08406067,0.069610596,-0.021575928,-2.1318436,-19.537354,-25.424576
1.4585939156267003E18,-1.4285126,0.37791443,9.857315,-0.015701294,0.06213379,0.04144287,-2.1318436,-19.537354,-25.424576
1.4585939156468419E18,-1.2844543,0.53141785,9.401535,0.056930542,0.045043945,0.062805176,-2.1318436,-19.451714,-25.25711
1.4585939156669834E18,-1.134903,0.7122803,8.81282,0.043045044,-0.010498047,0.049987793,-1.8733978,-19.366264,-25.424576
1.458593915687125E18,-1.1503448,0.67025757,8.80629,0.02381897,-0.038269043,0.031829834,-1.7873764,-19.194984,-25.592041
1.4585939157072666E18,-1.1604462,0.56539917,8.821884,-0.031723022,-0.048950195,0.017944336,-1.8735886,-18.681526,-25.592041
1.4585939157274084E18,-1.103836,0.44854736,9.138504,-0.056289673,-0.04147339,-0.011962891,-1.9598007,-18.681526,-25.592041
1.4585939157525852E18,-1.1304321,0.4219513,9.235062,-0.04988098,-0.046813965,-0.026916504,-2.132225,-18.595886,-25.508308
1.4585939157676915E18,-1.1158142,0.4403534,9.319855,-0.06803894,-0.032928467,-0.03866577,-2.0462036,-18.168068,-25.675774
1.458593915787833E18,-1.2890778,0.46435547,9.425873,-0.050949097,-0.0211792,-0.03866577,-1.9599915,-17.996979,-25.675774
1.4585939158079747E18,-1.289917,0.5306854,9.278076,-0.053085327,-0.07778931,-0.0012817383,-1.9599915,-17.91153,-25.843239
1.4585939158281162E18,-1.1381683,0.67025757,9.324005,-0.048812866,-0.10876465,0.026489258,-2.1324158,-17.74044,-25.675774
1.4585939158482578E18,-0.8944092,0.8531494,9.2534485,-0.04774475,-0.13226318,0.025421143,-2.1324158,-17.569351,-25.759697
1.4585939158683994E18,-0.81539917,0.97743225,9.474747,-0.030654907,-0.15362549,0.01687622,-2.0462036,-17.74044,-25.675964
1.4585939158885412E18,-0.8377075,1.1369934,9.477249,-0.0028839111,-0.18139648,0.0072631836,-1.8737793,-17.82589,-25.508308
1.4585939159086828E18,-0.7288666,1.3051605,9.48056,-0.010360718,-0.17391968,-0.021575928,-1.9598007,-17.569351,-25.340843
1.4585939159288243E18,-0.71455383,1.4317322,9.579147,-0.0039520264,-0.15789795,-0.05682373,-1.9598007,-17.483902,-25.340843
1.458593915948966E18,-0.7863312,1.4979095,9.743866,0.009933472,-0.14935303,-0.09741211,-2.1320343,-17.398453,-25.424576
1.4585939159691075E18,-0.74801636,1.5188599,9.745941,0.029159546,-0.14401245,-0.12411499,-2.2180557,-17.227364,-25.340843
1.458593915989249E18,-0.70970154,1.5216064,9.732407,0.020614624,-0.11303711,-0.16363525,-2.3040771,-17.141724,-25.592041
1.4585939160093906E18,-0.7185974,1.4837799,9.666061,0.02381897,-0.118377686,-0.19354248,-2.3040771,-17.227364,-25.424385
1.4585939160295322E18,-0.7261963,1.4037628,9.661285,0.008865356,-0.1611023,-0.22131348,-2.4763107,-17.227364,-25.424385
1.458593916049674E18,-0.7615051,1.174057,9.751205,3.2043457E-4,-0.14828491,-0.21704102,-2.90699,-17.056274,-25.508118
1.4585939160698156E18,-0.8508911,1.0342712,9.939621,0.006729126,-0.17712402,-0.18179321,-2.9932022,-17.141724,-25.759315
1.458593916089957E18,-0.7221832,0.9767914,10.11142,0.02809143,-0.19955444,-0.1529541,-3.1654358,-17.398262,-25.759315
1.4585939161100987E18,-0.62260437,1.048172,10.355957,0.071884155,-0.20809937,-0.15509033,-3.0794144,-17.569351,-25.675583
1.4585939161302403E18,-0.77511597,1.1234589,10.6454315,0.12528992,-0.18673706,-0.120910645,-3.1656265,-17.6548,-25.759315
1.4585939161503818E18,-0.7374878,1.5362396,10.5590515,0.2577362,-0.1749878,-0.098480225,-3.1656265,-17.82589,-25.508118
1.4585939161705234E18,-0.6015625,1.9210968,9.79364,0.2705536,-0.21984863,-0.13800049,-3.251648,-17.74025,-25.508118
1.4585939161906652E18,-0.55644226,1.9974823,9.526978,0.116744995,-0.25509644,-0.22024536,-3.5100937,-17.82589,-25.675583
1.4585939162108068E18,-0.49545288,1.2727661,9.772568,-0.058425903,-0.20596313,-0.25976563,-3.5963058,-17.82589,-25.759506
1.4585939162309484E18,-0.6575928,0.46333313,10.927139,-0.13746643,0.022613525,-0.19567871,-3.7685394,-17.82589,-25.759506
1.45859391625109E18,-0.91064453,0.3204956,11.33638,0.069747925,0.11767578,-0.057891846,-3.6823273,-17.74044,-25.84343
1.4585939162712315E18,-0.6561279,0.5015564,10.617752,0.27482605,0.03970337,0.026489258,-3.7683487,-17.569351,-25.84343
1.458593916291373E18,-0.4682312,0.7584686,9.656677,0.44145203,0.0418396,0.03503418,-4.0267944,-17.82608,-25.675964
1.4585939163115146E18,-0.42941284,0.96969604,8.646652,0.46601868,0.08456421,0.033966064,-4.0267944,-17.740631,-25.675964
1.4585939163316562E18,-0.28038025,0.9497833,7.810028,0.3773651,0.11981201,0.01260376,-3.940773,-17.826271,-25.592232
1.458593916351798E18,-0.18353271,0.809494,7.595581,0.1872406,0.13903809,-0.013031006,-3.6823273,-17.826271,-25.5085
1.4585939163719396E18,0.032562256,0.45059204,8.01709,0.055862427,0.1326294,-0.03225708,-3.5100937,-17.99736,-25.089455
1.4585939163920812E18,-0.014663696,0.047973633,8.787567,-0.030654907,0.112335205,-0.039733887,-3.33786,-18.083,-24.92199
1.4585939164122227E18,-0.27339172,-0.115234375,9.104523,-0.030654907,0.094177246,0.054260254,-3.33786,-18.083,-24.6706
1.4585939164323643E18,-0.34495544,0.14376831,9.108658,-0.035995483,0.067474365,0.123687744,-3.4240723,-18.16845,-24.6706
1.4585939164525059E18,-0.25726318,0.46839905,9.154755,-0.085128784,0.036499023,0.21340942,-3.0794144,-17.740631,-24.6706
1.4585939164726474E18,0.008590698,0.74201965,9.550278,-0.08406067,0.053588867,0.2401123,-3.1656265,-17.483902,-24.838066
1.458593916492789E18,0.13327026,1.0354614,9.583633,-0.017837524,0.04824829,0.22836304,-3.251648,-17.398262,-24.838066
1.4585939165129308E18,0.19073486,1.3260345,9.206345,0.038772583,0.03756714,0.21554565,-3.4238815,-17.312622,-24.6706
1.4585939165330724E18,0.22280884,1.5026703,8.689255,3.2043457E-4,0.057861328,0.20700073,-3.4238815,-17.141533,-24.838257
1.458593916553214E18,0.41023254,1.5515442,8.614258,-0.062698364,0.10592651,0.15786743,-3.3376694,-17.055893,-24.6706
1.4585939165733555E18,0.46829224,1.3501434,8.649902,-0.09580994,0.067474365,0.09591675,-3.3376694,-16.799164,-24.838066
1.458593916593497E18,0.34799194,1.1071625,8.563751,-0.142807,0.04824829,0.083099365,-3.3376694,-16.713715,-24.502945
1.4585939166136387E18,0.29356384,1.0342712,8.671677,-0.2058258,0.06213379,0.09591675,-3.509903,-16.799355,-24.67041
1.4585939166337802E18,0.42063904,1.0006714,9.018829,-0.22825623,0.02154541,0.11193848,-3.85437,-17.056084,-24.754143
1.458593916653922E18,0.58280945,1.053421,9.124466,-0.24641418,0.008728027,0.0927124,-4.0266037,-16.970634,-24.754143
1.4585939166740636E18,0.59306335,1.0957336,9.150543,-0.26670837,0.0140686035,0.06814575,-4.2850494,-16.714096,-24.837875
1.4585939166942052E18,0.5355835,1.1625671,9.541733,-0.28807068,0.011932373,0.033966064,-4.457283,-16.371918,-24.837875
1.4585939167143468E18,0.44914246,1.1875305,9.932465,-0.24855042,0.047180176,0.045715332,-4.7157288,-16.200829,-25.172997
1.4585939167344883E18,0.55474854,1.3631287,10.061279,-0.16416931,0.05038452,0.024353027,-4.8879623,-16.11538,-25.089264
1.4585939167596654E18,0.5334778,1.4919586,9.982529,-0.11503601,0.069610596,-0.045074463,-5.060196,-15.85865,-25.340652
1.4585939167747715E18,0.37309265,1.4323425,9.962311,-0.09474182,0.083496094,-0.06109619,-5.060196,-15.601921,-25.508308
1.458593916794913E18,0.32484436,1.3358307,9.900116,-0.048812866,0.065338135,-0.068573,-4.80175,-15.174103,-25.340843
1.4585939168100193E18,0.2987976,1.3093567,9.871933,-0.015701294,0.083496094,-0.06750488,-4.8879623,-15.088463,-25.508308
1.4585939168351964E18,0.15242004,1.4621277,9.515289,-0.029586792,0.10272217,-0.06964111,-4.801941,-14.831734,-25.592041
1.458593916855338E18,-0.017929077,1.3982697,9.57811,-0.04560852,0.06854248,-0.053619385,-4.7157288,-14.7462845,-25.592041
1.4585939168754796E18,-0.08010864,1.3325195,9.789886,-0.02104187,0.05999756,-0.02798462,-4.6295166,-14.660835,-25.592041
1.458593916895621E18,0.056625366,1.315033,9.789886,-0.012496948,0.040771484,-0.017303467,-4.7157288,-14.660835,-25.592041
1.4585939169157627E18,0.10014343,1.4557495,9.880478,-0.03492737,0.089904785,-0.023712158,-4.6295166,-14.660835,-25.675774
1.4585939169359043E18,-0.14242554,1.5437317,9.836014,-0.03492737,0.110198975,-2.1362305E-4,-4.6295166,-14.746475,-25.508118
1.458593916956046E18,-0.24569702,1.6729736,9.973038,-0.027450562,0.10272217,0.03717041,-4.801941,-15.088654,-25.508118
1.4585939169761876E18,-0.3007965,1.8068848,9.988068,0.013137817,0.09844971,0.056396484,-4.7157288,-14.832115,-25.340652
1.4585939169963292E18,-0.5270386,1.8669739,10.000626,0.049453735,0.07601929,0.09698486,-4.6295166,-15.003204,-25.424385
1.4585939170164708E18,-0.6642456,1.9363098,10.052582,0.10072327,0.06640625,0.15466309,-4.543495,-15.003204,-25.59185
1.4585939170366124E18,-0.5701752,1.9990387,9.817337,0.11781311,0.025817871,0.18670654,-4.543495,-14.746475,-25.59185
1.458593917056754E18,-0.35928345,1.7612305,9.872101,0.05479431,-0.0051574707,0.15252686,-4.457283,-14.575386,-25.508118
1.4585939170768955E18,-0.33076477,1.0407562,10.009079,-0.01890564,-0.0211792,0.09484863,-4.457283,-14.661026,-25.508118
1.458593917097037E18,-0.42486572,0.060424805,10.636322,-0.09901428,0.0044555664,0.09164429,-4.543495,-14.575386,-25.508118
1.458593917117179E18,-0.7921753,-0.66334534,11.210892,0.034500122,0.06213379,0.18136597,-4.457283,-14.1477585,-25.424385
1.4585939171373204E18,-0.87142944,-0.46455383,10.624847,0.20433044,0.03756714,0.27749634,-4.3712616,-14.318848,-25.424385
1.458593917157462E18,-0.8423004,0.03224182,9.396118,0.30152893,0.016204834,0.34692383,-4.2850494,-14.318848,-25.173187
1.4585939171776036E18,-0.61390686,0.38067627,8.597168,0.2363739,0.063201904,0.34692383,-4.457283,-14.489937,-25.005722
1.4585939171977452E18,-0.4702301,0.6031952,8.515869,0.23210144,0.12088013,0.30740356,-4.543495,-14.661026,-25.005722
1.4585939172178867E18,-0.31230164,0.92863464,8.118729,0.20967102,0.094177246,0.20913696,-4.6297073,-14.832115,-25.340843
1.4585939172380283E18,-0.32870483,0.93414307,7.874054,0.08683777,0.14224243,0.05532837,-4.6297073,-14.746475,-25.424576
1.4585939172581699E18,-0.6935425,0.5603943,8.353928,-0.10221863,0.26293945,-0.07711792,-4.801941,-14.832115,-25.424576
1.4585939172783117E18,-1.0106049,0.12030029,9.379105,-0.13319397,0.26187134,-0.12411499,-4.801941,-15.088654,-25.592041
1.4585939172984532E18,-1.1311798,-0.21102905,9.565033,-0.13105774,0.19137573,-0.15081787,-4.7157288,-15.003014,-25.759506
1.4585939173185948E18,-1.3346252,-0.35105896,9.92923,-0.15882874,0.19458008,-0.11450195,-4.543495,-14.831924,-26.010704
1.4585939173387364E18,-1.4810791,-0.24533081,10.5642395,-0.07017517,0.27575684,-0.026916504,-4.457283,-14.917374,-25.926971
1.458593917358878E18,-1.4755859,0.115112305,10.224945,0.10499573,0.20739746,0.06600952,-4.2850494,-15.003014,-25.843239
1.4585939173790195E18,-1.1151886,0.4212036,9.567612,0.18617249,0.14331055,0.10018921,-4.1988373,-15.259552,-25.508118
1.458593917399161E18,-0.8054962,0.90133667,8.855026,0.13276672,0.15505981,0.05960083,-4.1988373,-15.174103,-25.25692
1.458593917419303E18,-0.8752594,1.0657043,8.941864,0.10820007,0.08456421,0.0061950684,-3.85437,-15.003014,-25.089455
1.4585939174394445E18,-0.842041,1.1109009,9.048035,0.1103363,-0.013702393,-0.055755615,-3.768158,-15.088654,-25.173187
1.458593917459586E18,-0.67832947,1.0411987,9.227356,0.07081604,0.05038452,-0.11129761,-3.9403915,-15.003204,-25.005722
1.4585939174797276E18,-0.6329346,1.206543,9.383972,0.09538269,0.08242798,-0.20101929,-3.85437,-15.088844,-24.92199
1.4585939174998692E18,-0.8508911,1.409378,8.928741,0.10713196,0.01940918,-0.25442505,-3.7683487,-15.003395,-25.005722
1.4585939175200108E18,-1.3259888,1.4260406,8.639755,0.055862427,0.0044555664,-0.2939453,-3.7683487,-14.917755,-24.92199
1.4585939175401523E18,-1.7155151,1.3503723,8.611664,-7.4768066E-4,0.0012512207,-0.25976563,-3.596115,-14.661217,-24.92199
1.458593917560294E18,-1.7102509,1.2258453,8.686142,-0.035995483,-0.07458496,-0.2159729,-3.5100937,-14.661217,-25.005722
1.4585939175804357E18,-1.6000519,1.2258453,8.756378,-0.052017212,-0.11730957,-0.19567871,-3.5100937,-14.832306,-25.340843
1.4585939176005773E18,-1.6173706,1.2330627,8.858353,-0.08085632,-0.14294434,-0.17218018,-3.5100937,-14.917755,-25.173378
1.4585939176207188E18,-1.569107,1.2258453,8.818298,-0.10221863,-0.19528198,-0.12731934,-3.4240723,-14.917755,-25.005722
1.4585939176408604E18,-1.409729,1.3496246,8.851135,-0.14173889,-0.23373413,-0.09741211,-3.5963058,-15.003204,-25.005722
1.458593917661002E18,-1.3318481,1.661438,9.238342,-0.13426208,-0.28607178,-0.068573,-3.7685394,-14.917564,-25.089455
1.4585939176811436E18,-1.2461395,1.958313,9.334549,-0.13426208,-0.3149109,-0.0899353,-3.6823273,-15.003204,-25.089455
1.458593917701285E18,-1.155426,2.0355682,9.432922,-0.15455627,-0.33840942,-0.12197876,-3.7685394,-14.917564,-25.005722
1.4585939177214267E18,-1.0737152,1.8001404,9.810394,-0.23252869,-0.30529785,-0.15829468,-4.026985,-15.003014,-24.6706
1.4585939177415685E18,-1.11203,1.5515442,10.503647,-0.19728088,-0.28927612,-0.16363525,-4.285431,-15.003014,-24.502945
1.45859391776171E18,-1.1942444,1.32164,10.792923,-0.091537476,-0.30529785,-0.15402222,-4.5438766,-14.660835,-24.419212
1.4585939177818516E18,-1.2262573,1.3262482,10.3823395,-0.015701294,-0.29888916,-0.12625122,-4.974556,-14.660835,-24.6706
1.4585939178019932E18,-1.1412201,1.4940643,9.834152,-0.031723022,-0.28927612,-0.10168457,-5.1467896,-14.746475,-24.586868
1.4585939178221348E18,-0.9204407,1.5364075,9.874603,-0.028518677,-0.3234558,-0.098480225,-5.1467896,-14.832115,-24.251747
1.4585939178422764E18,-0.65045166,1.5524292,10.033157,3.2043457E-4,-0.32772827,-0.11022949,-5.577469,-14.661026,-24.000359
1.458593917862418E18,-0.5653534,1.5804901,10.24968,0.09324646,-0.2807312,-0.14013672,-5.921936,-14.661026,-23.916435
1.4585939178825597E18,-0.6905365,1.68927,9.817734,0.17869568,-0.23373413,-0.13693237,-6.0079575,-14.661026,-24.167824
1.4585939179027013E18,-0.59184265,1.8526611,9.466705,0.20219421,-0.23587036,-0.14334106,-6.180191,-14.575386,-24.167824
1.458593917922843E18,-0.37268066,1.8201447,8.9086,0.04838562,-0.27218628,-0.21490479,-6.266403,-14.917564,-24.0839
1.4585939179429844E18,-0.16880798,1.0539703,9.597763,-0.16203308,-0.24334717,-0.27044678,-6.180191,-15.174103,-23.916435
1.458593917963126E18,-0.23855591,0.2177887,10.897736,-0.22932434,-0.09487915,-0.21810913,-6.524658,-14.831924,-23.832703
1.4585939179832676E18,-0.4734192,-2.89917E-4,11.948395,-0.031723022,0.094177246,-0.068573,-6.6108704,-14.831924,-24.167824
1.4585939180034092E18,-0.1461029,0.53302,10.487915,0.29725647,0.05999756,0.017944336,-6.6108704,-14.831924,-24.167824
1.4585939180235507E18,0.12522888,0.79634094,8.844925,0.42329407,-0.09274292,-0.024780273,-6.6108704,-14.917564,-24.167824
1.4585939180436925E18,0.11808777,0.936676,8.063858,0.29512024,-0.098083496,-0.14013672,-6.524849,-15.003204,-24.0839
1.458593918063834E18,-0.09663391,0.47683716,8.004776,0.10392761,-0.022247314,-0.17218018,-6.438637,-14.917755,-23.832512
1.4585939180839757E18,0.0040130615,0.009124756,8.78447,-7.4768066E-4,0.045043945,-0.11343384,-6.180191,-14.832306,-23.916435
1.4585939181041172E18,0.39627075,-0.019439697,9.44017,0.038772583,0.061065674,-0.08886719,-6.266403,-14.661217,-23.916435
1.4585939181242588E18,0.62538147,0.045211792,9.195984,0.02168274,-8.8500977E-4,-0.12945557,-6.0941696,-14.917755,-23.916435
1.4585939181444004E18,0.28979492,0.010116577,9.472961,-7.4768066E-4,0.006591797,-0.13800049,-6.180191,-14.917755,-23.74897
1.458593918164542E18,-0.020004272,0.23348999,9.585815,0.019546509,0.032226563,-0.045074463,-6.0941696,-15.003204,-24.000359
1.4585939181846838E18,0.13327026,0.6588745,9.169052,0.034500122,0.030090332,0.013671875,-6.0941696,-15.003204,-24.084282
1.4585939182048253E18,0.24354553,1.0824127,8.860458,-0.0039520264,0.058929443,0.031829834,-6.0941696,-15.088654,-24.251938
1.458593918224967E18,0.253479,1.3355255,8.875565,-0.010360718,0.06640625,-0.0076904297,-5.921936,-15.259743,-24.503326
1.4585939182451085E18,0.14143372,1.2682495,8.820999,-0.012496948,0.04611206,-0.051483154,-6.3526154,-15.430832,-24.92218
1.45859391826525E18,0.11854553,1.1052551,8.741821,-0.05949402,0.08670044,-0.06750488,-6.266403,-15.345383,-25.005913
1.4585939182853916E18,-0.124191284,0.949234,8.914597,-0.10115051,0.110198975,-0.049346924,-6.180382,-15.431023,-25.089645
1.4585939183055332E18,0.059387207,0.8618469,9.244568,-0.12358093,0.11767578,0.0029907227,-5.921936,-15.602112,-25.173378
1.4585939183256748E18,0.1953888,0.9193115,9.373062,-0.1214447,0.10058594,-0.0023498535,-5.835724,-15.773201,-25.173378
1.4585939183458166E18,0.094940186,0.8377533,9.569321,-0.09260559,0.047180176,0.021148682,-5.835724,-15.85865,-25.089455
1.4585939183659581E18,0.16262817,0.9250488,9.49678,-0.071243286,0.06427002,0.07241821,-5.7495117,-15.602112,-25.173187
1.4585939183860997E18,0.3076172,1.1022797,9.145172,-0.09794617,0.057861328,0.08843994,-5.9217453,-15.516472,-24.754333
1.4585939184062413E18,0.43978882,1.2695007,9.14386,-0.116104126,0.022613525,0.083099365,-5.577278,-15.345383,-24.502945
1.4585939184263828E18,0.5355835,1.3599548,9.270874,-0.13426208,0.015136719,0.06814575,-5.6634903,-15.430832,-24.502945
1.4585939184465244E18,0.55474854,1.40271,9.65802,-0.12358093,1.8310547E-4,0.06600952,-5.835724,-15.174103,-24.419212
1.458593918466666E18,0.6505432,1.4290771,9.751572,-0.111831665,0.025817871,0.0574646,-6.008148,-15.003014,-24.586678
1.4585939184868076E18,0.59721375,1.5556946,9.721588,-0.10115051,0.026885986,0.042510986,-6.0943604,-14.746475,-24.67041
1.4585939185069494E18,0.37272644,1.695221,9.818634,-0.12464905,0.03970337,0.019012451,-6.008339,-14.489937,-24.838066
1.458593918527091E18,0.13117981,1.5558014,10.175125,-0.10328674,0.065338135,0.031829834,-6.008339,-14.575386,-24.754333
1.4585939185472325E18,0.099868774,1.4606781,10.422104,-0.058425903,0.063201904,0.046783447,-5.9223175,-14.404297,-25.173187
1.458593918567374E18,0.029830933,1.3829956,10.521652,0.014205933,0.06427002,0.049987793,-5.8361053,-14.233208,-25.005722
1.4585939185875156E18,-0.18659973,1.4070892,10.410294,0.08363342,0.08670044,0.06707764,-5.5776596,-14.062119,-24.92199
1.4585939186076572E18,-0.42233276,1.4365845,10.23761,0.14024353,0.12835693,0.13757324,-5.4914474,-14.062119,-24.92199
1.4585939186227635E18,-0.44648743,1.5226593,10.01091,0.20326233,0.1465149,0.19631958,-5.319023,-13.805389,-24.838257
1.4585939186479406E18,-0.44148254,1.7138672,9.527756,0.24705505,0.14544678,0.2401123,-5.4050446,-13.890839,-24.754524
1.4585939186680822E18,-0.40945435,2.080368,9.037445,0.23851013,0.06640625,0.25613403,-5.3188324,-13.976288,-24.670792
1.4585939186882237E18,-0.035308838,2.0833588,9.036621,0.07936096,0.06640625,0.2048645,-5.2326202,-13.719749,-24.670792
1.4585939187083653E18,-0.08482361,1.5046844,10.012009,-0.035995483,0.07922363,0.11087036,-5.146408,-13.6343,-24.419403
1.458593918728507E18,-0.21159363,0.4467926,10.753204,-0.044540405,0.0418396,0.09805298,-5.060196,-13.463211,-24.586868
1.4585939187486484E18,-0.38554382,-0.22587585,11.257721,0.02381897,0.08456421,0.13009644,-5.060196,-13.463211,-24.6706
1.45859391876879E18,-0.4989624,-0.16824341,11.101257,0.18937683,0.07495117,0.22729492,-4.80175,-13.292122,-24.6706
1.4585939187889316E18,-0.4276123,0.24153137,9.976776,0.27589417,0.042907715,0.26574707,-4.8879623,-13.377762,-24.586868
1.4585939188090734E18,-0.30737305,0.5926361,8.96402,0.31114197,0.013000488,0.25186157,-4.6295166,-13.121223,-24.586868
1.458593918829215E18,-0.3265381,0.9130707,8.112137,0.29405212,0.016204834,0.21447754,-4.80175,-13.035774,-24.502945
1.4585939188493565E18,-0.30932617,1.1179199,7.33374,0.18190002,-0.04360962,0.12155151,-4.80175,-13.292313,-24.502945
1.458593918869498E18,-0.4706726,0.9284363,7.453781,-0.029586792,-0.059631348,0.026489258,-4.80175,-13.377762,-24.6706
1.4585939188896397E18,-0.6004486,0.7360077,8.393417,-0.16737366,0.0033874512,-0.021575928,-4.80175,-13.463211,-24.419212
1.4585939189097812E18,-0.45552063,0.4940796,9.117966,-0.198349,0.029022217,-0.06750488,-4.715538,-13.463211,-24.167824
1.4585939189299228E18,-0.759079,0.40657043,9.5216675,-0.16416931,0.02368164,-0.1038208,-4.80175,-13.548851,-24.251556
1.4585939189500644E18,-1.1683044,0.40203857,9.284851,-0.15989685,0.0140686035,-0.07925415,-4.80175,-13.463211,-24.251556
1.4585939189702062E18,-1.3036041,0.46351624,9.169708,-0.21650696,0.040771484,-0.0066223145,-4.7157288,-13.377571,-24.251556
1.4585939189903478E18,-1.296936,0.53034973,9.465103,-0.20048523,0.020477295,0.046783447,-4.457283,-13.206482,-24.419212
1.4585939190104893E18,-1.0937653,0.7753906,9.330536,-0.13319397,-0.0211792,0.09591675,-4.6297073,-12.864304,-24.33548
1.458593919030631E18,-0.92836,0.9688721,9.138504,-0.14387512,-0.040405273,0.09057617,-4.543495,-12.778854,-24.251747
1.4585939190507725E18,-0.9178009,0.90560913,9.360306,-0.1353302,-0.04147339,0.06173706,-4.6297073,-12.522316,-24.419403
1.458593919070914E18,-0.94937134,0.80436707,9.5408325,-0.071243286,-0.08312988,0.08416748,-4.888153,-12.265778,-24.670792
1.4585939190910556E18,-0.73161316,0.7616577,9.343231,-0.06803894,-0.08526611,0.07562256,-4.888153,-12.180138,-24.670792
1.4585939191111974E18,-0.6615448,0.7706909,9.37825,-0.10221863,-0.073516846,0.03930664,-4.974365,-11.837959,-24.503136
1.458593919131339E18,-0.8754425,0.7277374,9.629486,-0.08833313,-0.0703125,0.04144287,-5.232811,-11.923599,-24.586868
1.4585939191514806E18,-1.0174408,0.8031616,9.64801,-0.04347229,-0.084198,0.07028198,-5.4052353,-11.66687,-24.6706
1.4585939191716221E18,-0.7368927,0.95866394,9.59935,-0.03919983,-0.08206177,0.09164429,-5.4912567,-11.581421,-24.838066
1.4585939191917637E18,-0.47232056,1.053421,9.759064,-0.028518677,-0.0703125,0.07348633,-5.663681,-11.495781,-24.838066
1.4585939192119053E18,-0.46064758,1.072586,9.932419,0.03236389,-0.093811035,0.022216797,-5.8359146,-11.410141,-24.838066
1.4585939192270116E18,-0.45993042,1.0657043,9.690796,0.08256531,-0.089538574,0.0072631836,-5.8359146,-11.324501,-24.921799
1.4585939192521884E18,-0.37979126,1.1775665,9.052673,0.06440735,-0.10235596,-0.017303467,-5.8359146,-11.153412,-25.005531
1.4585939192723302E18,-0.2571869,1.2760315,9.0295105,0.017410278,-0.098083496,-0.057891846,-5.8359146,-11.324501,-25.173187
1.4585939192924718E18,-0.36920166,1.2768707,9.012939,-0.026382446,-0.12905884,-0.11022949,-5.8359146,-10.982323,-25.173187
1.4585939193126134E18,-0.47979736,1.1580353,9.305145,-0.069107056,-0.14614868,-0.1177063,-5.921936,-11.067963,-25.089455
1.458593919332755E18,-0.35838318,1.142868,9.445038,-0.08833313,-0.10876465,-0.13265991,-5.8359146,-10.982323,-25.005722
1.4585939193528965E18,-0.2738495,1.2497864,9.282196,-0.14494324,-0.10128784,-0.18179321,-5.8359146,-10.982323,-25.25692
1.458593919373038E18,-0.5928192,1.2971954,9.251526,-0.21330261,-0.10983276,-0.23413086,-5.8359146,-11.067963,-25.508308
1.4585939193931796E18,-1.0111237,1.1875305,9.677399,-0.2688446,-0.14614868,-0.20956421,-6.0943604,-11.153603,-25.759697
1.4585939194133212E18,-1.0354004,1.0342712,10.445541,-0.22505188,-0.11730957,-0.12838745,-6.4388275,-11.239243,-26.011086
1.458593919433463E18,-0.7591095,1.0312653,10.725662,-0.15776062,-0.12799072,-0.102752686,-6.524849,-10.897064,-26.17855
1.4585939194536046E18,-0.64237976,1.2077637,10.824982,-0.069107056,-0.15362549,-0.09527588,-6.3524246,-10.982513,-26.262283
1.4585939194737462E18,-0.61390686,1.3782806,10.8502655,0.057998657,-0.1194458,-0.057891846,-6.696892,-11.067963,-26.429749
1.4585939194938877E18,-0.4430542,1.675293,10.409683,0.17869568,-0.09487915,-0.025848389,-6.696892,-10.982513,-26.681137
1.4585939195140293E18,-0.033065796,1.868515,9.86911,0.31221008,-0.098083496,-0.039733887,-6.782913,-10.982513,-26.76506
1.458593919534171E18,0.25280762,1.9970245,9.656036,0.42863464,-0.12478638,-0.11984253,-6.955147,-11.067963,-26.597404
1.4585939195543124E18,0.32484436,2.1847992,9.0355835,0.49165344,-0.13760376,-0.21490479,-6.782913,-11.067963,-26.262283
1.4585939195744543E18,0.68885803,2.1110077,8.487274,0.37522888,-0.2102356,-0.3772583,-6.696892,-11.067963,-26.010895
1.4585939195945958E18,1.0161743,1.0211945,8.438416,0.088974,-0.26470947,-0.5652466,-6.783104,-11.324692,-25.84343
1.4585939196147374E18,0.8027649,-0.78564453,9.832474,-0.4226532,-0.0051574707,-0.63894653,-7.2137833,-11.410332,-25.675964
1.458593919634879E18,-0.53533936,-1.548706,12.68605,-0.29127502,0.24050903,-0.41357422,-6.9555283,-11.410332,-25.592232
1.4585939196550205E18,-0.97554016,-0.993103,12.154572,0.28337097,0.08135986,-0.008758545,-7.0415497,-11.495781,-25.508308
1.458593919675162E18,-0.0693512,0.4371643,9.096954,0.46281433,-0.20169067,0.020080566,-6.9555283,-11.495781,-25.424385
1.4585939196953037E18,0.19207764,1.0342712,7.912369,0.2566681,-0.1546936,-0.0546875,-6.7832947,-11.495781,-25.592041
1.4585939197154452E18,0.059020996,0.98635864,8.182983,0.14131165,-0.029724121,-0.08139038,-6.7832947,-11.752319,-25.759506
1.458593919735587E18,0.029968262,0.80496216,8.087799,0.013137817,-0.05215454,-0.033325195,-6.869316,-12.008858,-26.010895
1.4585939197557286E18,0.71339417,0.79177856,8.627823,-0.025314331,0.033294678,-0.08459473,-6.869316,-12.094307,-26.17836
1.4585939197758702E18,0.80700684,0.70433044,8.556305,-0.09046936,0.06640625,-0.2298584,-6.9555283,-12.350845,-26.429749
1.4585939197960118E18,0.13557434,0.43022156,8.895065,-0.13319397,0.055725098,-0.27578735,-6.869316,-12.350845,-26.681137
1.4585939198161533E18,-0.33067322,0.28294373,9.432632,-0.1566925,0.1262207,-0.13800049,-7.127762,-12.436485,-26.848793
1.458593919836295E18,0.16651917,0.46113586,9.628311,-0.09580994,0.12728882,0.0029907227,-7.472229,-12.522125,-26.932716
1.4585939198564365E18,0.74632263,0.9589691,9.315094,-0.042404175,0.08456421,-0.024780273,-7.558441,-12.522125,-27.016449
1.4585939198765783E18,0.58392334,1.1300507,8.9375,-0.07444763,0.030090332,-0.08352661,-7.816696,-12.094498,-26.848984
1.45859391989672E18,0.21446228,1.1221313,9.104767,-0.09046936,0.047180176,-0.08139038,-7.816696,-12.009048,-26.597595
1.4585939199168614E18,0.17448425,1.0151062,9.053543,-0.09901428,0.027954102,-0.042938232,-7.9027176,-12.094688,-26.681519
1.458593919937003E18,0.3290863,1.0151062,9.147736,-0.12998962,0.033294678,-0.031188965,-7.8165054,-12.009239,-26.681519
1.4585939199571446E18,0.223526,0.8900757,9.16774,-0.16630554,0.03543091,-0.039733887,-8.074951,-11.92379,-26.765251
1.4585939199772861E18,0.008300781,0.80892944,9.671234,-0.18125916,0.06854248,-0.019439697,-7.988739,-11.752701,-26.681519
1.4585939199974277E18,0.120391846,0.8618469,9.732407,-0.12251282,0.034362793,0.019012451,-7.902527,-11.495972,-26.597595
1.4585939200175693E18,0.20083618,0.98480225,9.654755,-0.07978821,0.058929443,0.017944336,-7.902527,-11.239433,-26.597595
1.458593920037711E18,-0.033340454,1.1708679,9.382568,-0.069107056,0.08029175,0.03289795,-7.7302933,-11.3248825,-27.100372
1.4585939200578527E18,-0.18579102,1.251648,9.246033,-0.09901428,0.03756714,0.06921387,-7.5580597,-11.153793,-27.35176
1.4585939200779942E18,0.011398315,1.1927338,9.598297,-0.07551575,0.055725098,0.10232544,-7.5580597,-10.725975,-27.435493
1.4585939200981358E18,0.26345825,1.1875305,9.610001,-0.053085327,0.09310913,0.09698486,-7.5580597,-10.298157,-27.686882
1.4585939201182774E18,0.15760803,1.2209625,9.665207,-0.011428833,0.042907715,0.07989502,-7.299614,-10.212517,-27.686882
1.458593920138419E18,-0.1277771,1.2509918,9.542038,-0.0050201416,0.056793213,0.11941528,-6.955147,-10.126877,-27.519226
1.4585939201585605E18,-0.068725586,1.302475,9.6349945,-0.027450562,0.09631348,0.16641235,-6.696892,-10.126877,-27.519226
1.458593920178702E18,0.26087952,1.3301849,9.845306,0.009933472,0.052520752,0.17388916,-6.6106796,-10.212326,-27.435493
1.458593920198844E18,0.2986908,1.2711487,9.859543,0.033432007,0.025817871,0.15359497,-6.524658,-10.383415,-27.184105
1.4585939202189855E18,0.17158508,1.268692,9.813583,0.019546509,0.040771484,0.16854858,-6.524658,-10.041237,-27.184105
1.458593920239127E18,0.118896484,1.3743286,9.890472,0.0035247803,0.07601929,0.1835022,-6.438637,-10.212326,-27.016449
1.4585939202592686E18,-0.08598328,1.5196381,10.224228,0.020614624,0.07922363,0.22836304,-6.3526154,-10.297966,-26.681137
1.4585939202794102E18,0.07221985,1.741333,10.134735,0.096450806,0.07815552,0.27642822,-6.180382,-10.297966,-26.346016
1.4585939202995517E18,0.4290924,1.9984131,10.000626,0.11140442,0.0770874,0.246521,-6.611061,-10.126877,-26.681137
1.4585939203196933E18,0.30541992,2.1262817,9.91449,0.114608765,0.10592651,0.18777466,-6.869316,-10.126877,-26.932526
1.4585939203398351E18,0.08836365,2.0751038,9.917419,0.12528992,0.10272217,0.15786743,-6.869316,-10.041428,-26.848602
1.4585939203599767E18,0.128479,1.7670593,9.895264,0.08363342,0.10592651,0.13650513,-6.783104,-9.784889,-26.932335
1.4585939203801183E18,0.30056763,1.1850281,10.253494,0.05479431,0.12408447,0.08950806,-6.783104,-10.041428,-26.848602
1.4585939204002598E18,0.23008728,0.5281067,10.336426,0.076156616,0.09310913,0.0574646,-6.8691254,-9.955978,-26.932526
1.4585939204204014E18,0.040130615,0.111831665,10.200378,0.076156616,0.063201904,0.08203125,-6.696892,-9.870338,-27.100182
1.458593920440543E18,-0.11579895,-0.1535492,10.061096,0.088974,0.032226563,0.17602539,-7.041359,-9.870338,-27.35157
1.4585939204606845E18,-0.07748413,0.07923889,9.692169,0.13703918,-0.008361816,0.24972534,-6.6106796,-10.212517,-27.184105
1.458593920480826E18,0.10757446,0.40161133,9.190292,0.1455841,-0.10235596,0.27108765,-6.524658,-10.212517,-26.848984
1.458593920500968E18,0.13327026,0.5220337,8.955994,0.10179138,-0.10128784,0.23690796,-6.438637,-10.212517,-27.01664
1.4585939205211095E18,-0.001663208,0.5744629,8.888641,0.10820007,-0.093811035,0.17282104,-6.3526154,-10.297966,-27.100372
1.458593920541251E18,-0.18305969,0.56466675,8.7642975,0.08683777,-0.10235596,0.08950806,-6.4388275,-10.297966,-27.184105
1.4585939205613926E18,-0.1210022,0.51179504,8.645599,0.043045044,-0.07778931,0.004058838,-6.266594,-10.297966,-27.267838
1.4585939205815342E18,-0.23493958,0.37869263,8.797852,-0.029586792,-0.033996582,-0.08566284,-6.266594,-10.212517,-27.35157
1.4585939206016758E18,-0.5583801,0.12133789,8.96608,-0.089401245,-8.8500977E-4,-0.12731934,-6.1805725,-10.298157,-27.435303
1.4585939206218173E18,-0.7932892,-0.1535492,9.208206,-0.12358093,0.030090332,-0.08886719,-6.5250397,-10.298157,-27.435303
1.458593920641959E18,-0.68685913,-0.061065674,9.296936,-0.11076355,0.03543091,-0.042938232,-6.266594,-10.127068,-27.602959
1.4585939206621007E18,-0.5987854,0.2286377,9.226257,-0.11824036,0.02368164,-0.023712158,-6.3526154,-10.041428,-27.519226
1.4585939206822423E18,-0.7863312,0.4640503,9.2200165,-0.087265015,0.0044555664,0.023284912,-6.438637,-9.955978,-27.267838
1.458593920702384E18,-0.69070435,0.7228241,9.066635,-0.089401245,-0.046813965,0.083099365,-6.3524246,-9.870529,-27.016449
1.4585939207225254E18,-0.35432434,0.9267273,9.065002,-0.10649109,-0.055358887,0.076690674,-6.266403,-9.870529,-26.932716
1.458593920742667E18,-0.23074341,0.98583984,9.332184,-0.11930847,-0.042541504,0.054260254,-6.180191,-9.955978,-26.681328
1.4585939207628086E18,-0.17028809,1.0261841,9.529755,-0.089401245,-0.033996582,-2.1362305E-4,-5.9217453,-9.784889,-26.597595
1.4585939207829501E18,-0.22341919,0.98413086,9.456863,-0.07658386,-0.011566162,-0.05041504,-5.6634903,-9.6138,-26.76506
1.458593920803092E18,-0.44148254,0.8809967,9.641571,-0.062698364,0.018341064,-0.057891846,-5.6634903,-9.6138,-26.76506
1.4585939208232335E18,-0.54237366,0.9052429,9.450134,-0.029586792,-0.001953125,-0.05682373,-5.577469,-9.69944,-26.681137
1.458593920843375E18,-0.46496582,1.057724,9.159607,-0.0050201416,-0.03186035,-0.07498169,-5.577469,-9.442711,-26.681137
1.4585939208635167E18,-0.47979736,1.1230621,8.9782715,-0.042404175,-0.029724121,-0.102752686,-5.663681,-9.357071,-27.016258
1.4585939208836582E18,-0.6140747,1.0149536,9.081024,-0.07872009,-0.033996582,-0.11557007,-5.7497025,-9.271431,-27.016258
1.4585939209037998E18,-0.84381104,0.90016174,9.370743,-0.054153442,-0.071380615,-0.08886719,-6.008148,-9.100342,-27.183914
1.4585939209239414E18,-0.84980774,0.90016174,9.67012,-0.009292603,-0.09915161,-0.02798462,-6.266594,-8.843613,-27.100182
1.458593920944083E18,-0.6606598,0.93847656,9.74736,0.038772583,-0.093811035,-0.004486084,-6.4388275,-8.929253,-27.100182
1.4585939209642248E18,-0.5414429,1.0642548,9.568314,0.06333923,-0.10235596,0.004058838,-6.5250397,-8.929253,-27.435303
1.4585939209843663E18,-0.3335724,1.2147675,9.475281,0.07081604,-0.091674805,-0.020507813,-6.7832947,-8.843613,-27.602959
1.458593921004508E18,-0.23744202,1.2833252,9.329208,0.045181274,-0.07244873,-0.055755615,-6.9555283,-9.014702,-27.854347
1.4585939210246495E18,-0.25933838,1.3021698,9.435318,0.020614624,-0.06283569,-0.078186035,-6.869316,-9.100342,-27.686882
1.458593921044791E18,-0.21159363,1.4478302,9.460876,0.0035247803,-0.055358887,-0.10595703,-6.869316,-9.185982,-27.854347
1.4585939210649326E18,-0.09663391,1.5323792,9.535431,-0.042404175,-0.055358887,-0.15188599,-6.9553375,-9.6138,-27.854347
1.4585939210850742E18,-0.24209595,1.4788055,9.720688,-0.085128784,-0.02545166,-0.1946106,-7.041359,-9.784889,-28.105736
1.458593921105216E18,-0.3945923,1.3685303,9.889984,-0.09474182,-0.046813965,-0.21490479,-7.041359,-9.699249,-28.357124
1.4585939211253576E18,-0.50886536,1.2159424,10.192856,-0.10862732,-0.073516846,-0.21810913,-7.385826,-9.955978,-28.440857
1.4585939211454991E18,-0.6713867,1.0408478,10.574783,-0.064834595,-0.07885742,-0.1743164,-7.4720383,-10.041618,-28.775978
1.4585939211656407E18,-0.52020264,1.072586,10.82341,0.011001587,-0.07885742,-0.1177063,-7.5582504,-10.2127075,-28.859901
1.4585939211857823E18,-0.20658875,1.3132935,10.382141,0.088974,-0.11730957,-0.1315918,-7.9027176,-10.298157,-29.195023
1.4585939212059238E18,-0.02168274,1.354126,9.954819,0.053726196,-0.11303711,-0.19674683,-8.074951,-10.383606,-29.195023
1.4585939212260654E18,-0.12971497,1.1649475,9.99881,-0.02104187,-0.09274292,-0.2298584,-8.161163,-10.297966,-29.613876
1.4585939212411717E18,-0.21760559,0.8712158,10.200851,-0.033859253,-0.06283569,-0.21170044,-8.333397,-10.383606,-29.697609
1.4585939212663488E18,-0.3310089,0.5365906,10.599442,0.0398407,-0.028656006,-0.17004395,-8.419418,-10.554695,-29.530144
1.4585939212864904E18,-0.3516388,0.45951843,10.221329,0.15840149,-0.037200928,-0.12197876,-8.333206,-10.469055,-29.446411
1.458593921306632E18,-0.042755127,0.4786682,9.575867,0.23103333,-0.001953125,-0.09527588,-8.50544,-10.469055,-29.362679
1.4585939213267735E18,0.18017578,0.5083771,9.124069,0.28337097,0.08029175,-0.13372803,-8.591461,-10.383606,-29.362679
1.458593921346915E18,0.15242004,0.67025757,8.438889,0.35386658,0.038635254,-0.19674683,-8.591461,-10.469246,-29.362679
1.4585939213670566E18,0.23347473,0.54499817,7.549942,0.23103333,0.04824829,-0.2437439,-8.591461,-10.725975,-29.530334
1.4585939213871982E18,0.15242004,0.3111725,7.3327026,-0.04988098,0.07388306,-0.27365112,-8.505249,-10.982704,-29.614258
1.4585939214073398E18,0.14451599,-0.09945679,8.612183,-0.19621277,0.027954102,-0.25335693,-8.333015,-11.068153,-29.781723
1.4585939214274816E18,0.15242004,-0.69400024,9.401382,-0.23039246,-0.033996582,-0.17752075,-8.246994,-11.3248825,-29.949188
1.4585939214476232E18,0.16304016,-0.7431183,10.298782,-0.19621277,-0.051086426,-0.037597656,-8.333206,-11.495972,-30.03292
1.4585939214677647E18,0.3648224,0.10549927,10.476257,-0.1000824,-0.06283569,0.08203125,-7.988739,-11.667061,-30.03292
1.4585939214879063E18,0.61576843,0.8968811,10.005829,-0.0370636,-0.118377686,0.06921387,-7.9027176,-11.923599,-30.116653
1.458593921508048E18,0.5496521,1.3556519,9.80397,-0.0050201416,-0.059631348,0.03930664,-7.6444626,-11.837959,-30.116653
1.4585939215281894E18,0.40977478,1.6198578,9.220917,0.02168274,-0.006225586,0.0061950684,-7.472229,-11.752319,-30.284119
1.458593921548331E18,0.5200043,1.7570801,8.847565,0.017410278,0.0140686035,-0.060028076,-7.3862076,-11.324501,-29.865074
1.4585939215684728E18,0.3874054,1.5102234,8.728104,-0.01890564,0.033294678,-0.14868164,-7.213974,-11.324501,-29.529953
1.4585939215886144E18,-0.11328125,0.9901428,8.88945,-0.048812866,0.042907715,-0.12411499,-7.2999954,-11.067772,-29.362488
1.458593921608756E18,-0.17105103,0.6409607,9.0438385,-0.08833313,0.061065674,-0.046142578,-7.127762,-10.982323,-29.195023
1.4585939216288975E18,0.024505615,0.5426178,9.425339,-0.1278534,0.05038452,0.0115356445,-7.0415497,-10.982323,-29.11129
1.458593921649039E18,0.25502014,0.5936279,9.732407,-0.07337952,0.01940918,0.05105591,-6.6108704,-10.896873,-29.11129
1.4585939216691807E18,0.34074402,0.74157715,9.622772,-0.046676636,0.018341064,0.064941406,-6.3524246,-10.811424,-28.943634
1.4585939216893222E18,0.33093262,1.0020294,9.3901825,-0.032791138,0.03543091,0.07348633,-6.3524246,-10.897064,-28.52478
1.4585939217094638E18,0.43443298,1.1492157,9.138504,-0.04988098,0.052520752,0.078826904,-6.093979,-11.153793,-28.357315
1.4585939217296056E18,0.4781189,1.2338562,9.291779,-0.04774475,0.10165405,0.06387329,-6.093979,-11.153793,-28.357315
1.4585939217497472E18,0.42063904,1.3514252,9.170532,-0.011428833,0.0909729,0.0435791,-5.835724,-11.153793,-28.273392
1.4585939217698888E18,0.401474,1.4823761,8.93779,-0.009292603,0.0770874,0.028625488,-5.577278,-10.897064,-28.273392
1.4585939217900303E18,0.40686035,1.5883484,8.940048,-0.054153442,0.08670044,0.021148682,-5.577278,-10.725975,-28.189468
1.458593921810172E18,0.4925537,1.6281738,9.224899,-0.06590271,0.09631348,0.004058838,-5.835724,-10.554886,-28.021812
1.4585939218303135E18,0.48268127,1.5415192,9.416733,-0.07337952,0.08670044,-0.015167236,-5.835724,-10.811424,-28.021812
1.458593921850455E18,0.37738037,1.4316406,9.689758,-0.066970825,0.085632324,-0.031188965,-5.835724,-10.640335,-28.273201
1.4585939218705966E18,0.17546082,1.3446808,9.831955,-0.046676636,0.09310913,-0.0023498535,-5.835724,-10.469246,-28.356934
1.4585939218907384E18,0.17158508,1.2848053,9.927002,-0.056289673,0.11767578,0.017944336,-5.835724,-10.640335,-28.356934
1.45859392191088E18,0.13755798,1.2676849,10.03894,-0.035995483,0.13156128,0.019012451,-6.0079575,-10.554886,-28.440857
1.4585939219310216E18,0.06109619,1.2596741,10.0434265,0.011001587,0.114471436,0.031829834,-6.0079575,-10.897064,-28.273201
1.4585939219511631E18,-0.06587219,1.302475,9.956497,-0.0050201416,0.15933228,0.036102295,-5.835724,-11.153603,-28.357124
1.4585939219713047E18,-0.1803894,1.3367767,9.950272,-0.006088257,0.1539917,0.05105591,-5.7495117,-11.067963,-28.52478
1.4585939219914463E18,-0.4701538,1.3551941,10.106079,0.031295776,0.110198975,0.11621094,-5.9217453,-10.811424,-28.776169
1.4585939220115878E18,-0.46064758,1.4396973,10.0698395,0.049453735,0.110198975,0.20166016,-5.835724,-10.811424,-28.776169
1.4585939220317297E18,-0.3265381,1.7058411,9.979401,0.06867981,0.094177246,0.2614746,-5.921936,-10.982513,-29.027557
1.4585939220518712E18,-0.049331665,1.792511,9.847366,0.057998657,0.038635254,0.25506592,-5.7497025,-10.811424,-29.195213
1.4585939220720128E18,0.199646,1.5963287,9.908615,0.0035247803,0.034362793,0.17922974,-5.4912567,-10.811424,-29.362679
1.4585939220921544E18,0.2195282,1.0105133,10.374054,-0.01890564,0.08242798,0.13757324,-5.4050446,-10.469246,-29.6978
1.458593922112296E18,-0.087371826,0.4593048,10.580124,0.033432007,0.07815552,0.13009644,-5.232811,-10.298157,-29.865265
1.4585939221324375E18,-0.2793274,0.2826233,10.362869,0.14878845,-0.006225586,0.17175293,-5.319023,-10.469246,-29.865265
1.458593922152579E18,-0.0917511,0.3062439,9.845596,0.18830872,-0.07458496,0.18243408,-5.2330017,-10.469246,-29.781532
1.4585939221727206E18,-0.13555908,0.2965088,9.137314,0.11781311,-0.0703125,0.18670654,-5.0605774,-10.554695,-29.948997
1.4585939221928625E18,-0.24990845,0.35614014,9.192398,0.04838562,-0.08312988,0.21981812,-4.888153,-10.383606,-30.03273
1.458593922213004E18,-0.16629028,0.39595032,9.292679,0.04411316,-0.116241455,0.22729492,-4.888153,-10.383606,-30.200195
1.4585939222331456E18,-0.18769836,0.43562317,9.186279,0.06867981,-0.10235596,0.20593262,-4.888153,-10.554695,-30.200195
1.4585939222532872E18,-0.28822327,0.5266876,9.00914,0.07722473,-0.09701538,0.17175293,-4.974365,-10.811424,-30.283928
1.4585939222734287E18,-0.34568787,0.65911865,8.858261,0.1028595,-0.13546753,0.11193848,-5.146599,-10.897064,-30.200195
1.4585939222935703E18,-0.44906616,0.61857605,8.677826,0.069747925,-0.12799072,0.044647217,-4.888153,-10.897064,-30.03254
1.458593922313712E18,-0.5947571,0.43092346,8.697571,0.008865356,-0.10235596,0.01260376,-4.7157288,-10.897064,-30.03254
1.4585939223338537E18,-0.4884796,0.35324097,8.9592285,-0.07337952,-0.03186035,0.010467529,-4.7157288,-10.811615,-29.865074
1.4585939223539953E18,-0.42233276,0.37747192,9.179749,-0.09046936,-0.006225586,-0.005554199,-4.6297073,-10.982704,-29.865074
1.4585939223741368E18,-0.4265747,0.61701965,8.871033,-0.10328674,-0.016906738,-0.023712158,-4.801941,-11.068344,-29.781342
1.4585939223942784E18,-0.72125244,0.732193,8.823059,-0.17485046,-8.8500977E-4,-0.033325195,-4.888153,-11.153793,-29.529953
1.4585939224194555E18,-1.0697174,0.58247375,9.401825,-0.14601135,-0.0211792,0.038238525,-4.974365,-10.811615,-29.362488
1.4585939224345615E18,-1.1375885,0.61917114,9.5216675,-0.07978821,-0.073516846,0.09805298,-4.7159195,-10.811615,-29.362488
1.458593922454703E18,-0.82736206,0.74508667,9.426788,-0.02104187,-0.11303711,0.18136597,-4.974365,-10.897255,-29.697609
1.4585939224748447E18,-0.17068481,0.9295349,9.24324,-0.019973755,-0.10769653,0.16748047,-5.232811,-10.982704,-29.781342
1.4585939224949865E18,0.043151855,1.0285645,9.362717,-7.4768066E-4,-0.114105225,0.09057617,-5.232811,-10.897064,-30.03273
1.458593922515128E18,-0.1455841,1.0576935,9.223679,0.007797241,-0.095947266,0.042510986,-5.4912567,-10.897064,-29.948997
1.4585939225352696E18,-0.17326355,1.0581818,9.100189,-0.019973755,-0.055358887,0.019012451,-5.1467896,-10.897064,-29.865265
1.4585939225554112E18,-0.09663391,1.053421,9.191483,-0.019973755,-0.060699463,-0.020507813,-4.974365,-10.725975,-30.116653
1.4585939225755528E18,-0.18545532,1.1239624,9.336182,-0.017837524,-0.07458496,-0.05682373,-4.801941,-10.897064,-30.116653
1.4585939225956943E18,-0.34568787,1.1093903,9.464203,-0.028518677,-0.037200928,-0.073913574,-4.888153,-10.811424,-30.200386
1.458593922615836E18,-0.3479309,1.1790619,9.628159,-0.009292603,-0.058563232,-0.102752686,-4.7159195,-10.725784,-29.865265
1.4585939226359775E18,-0.37208557,1.1360168,9.706039,0.0056610107,-0.059631348,-0.11984253,-4.629898,-10.896873,-29.6978
1.4585939226561193E18,-0.5029602,1.1416321,9.805466,0.0035247803,-0.046813965,-0.11450195,-4.71611,-10.982513,-29.613876
1.4585939226762609E18,-0.411438,1.2258453,9.958191,0.007797241,-0.051086426,-0.13479614,-4.8021317,-10.982513,-29.613876
1.4585939226964024E18,-0.29840088,1.2219543,10.17305,0.019546509,-0.061767578,-0.16043091,-5.0605774,-11.067963,-29.781342
1.458593922716544E18,-0.24589539,1.1875305,10.312958,0.036636353,-0.029724121,-0.18499756,-5.1467896,-11.067963,-29.781342
1.4585939227366856E18,-0.23928833,1.1683807,10.126205,0.04197693,0.032226563,-0.21170044,-5.319214,-11.324501,-29.948807
1.4585939227568271E18,-0.443161,1.2937317,9.882355,0.07295227,0.02368164,-0.2373352,-5.5776596,-11.324501,-29.948807
1.4585939227769687E18,-0.69721985,1.289566,9.559982,0.06440735,0.016204834,-0.23092651,-5.5776596,-11.410141,-30.03273
1.4585939227971105E18,-0.8182373,1.3279419,9.725876,0.06227112,0.01727295,-0.19781494,-5.4052353,-11.495781,-30.367851
1.458593922817252E18,-0.75668335,1.4470825,9.885681,0.1242218,0.0140686035,-0.1454773,-5.319023,-11.410141,-30.367851
1.4585939228373937E18,-0.52090454,1.7638855,9.797043,0.20219421,0.010864258,-0.13479614,-4.974556,-11.410141,-30.451584
1.4585939228575352E18,-0.2796936,2.1126556,9.406723,0.18937683,-8.8500977E-4,-0.18713379,-4.888344,-11.324692,-30.367851
1.4585939228776768E18,-0.07748413,2.0906677,9.20961,0.08576965,0.002319336,-0.2854004,-4.888344,-11.495781,-30.535507
1.4585939228978184E18,-8.392334E-4,1.4208984,9.466431,-0.09474182,0.011932373,-0.3761902,-4.8021317,-11.66687,-30.451775
1.45859392291796E18,-0.22372437,0.21775818,10.68248,-0.21437073,0.07815552,-0.3761902,-4.7159195,-11.923599,-30.703163
1.4585939229381015E18,-0.77090454,-0.21102905,12.033722,-0.026382446,0.230896,-0.15081787,-4.4574738,-12.094688,-30.954361
1.4585939229582433E18,-0.403656,0.22427368,11.199371,0.4179535,0.11126709,0.009399414,-4.3714523,-12.180138,-31.121826
1.458593922978385E18,0.21772766,0.5361481,8.799759,0.5023346,-0.08633423,-0.023712158,-4.285431,-12.607956,-31.121826
1.4585939229985265E18,0.23751831,0.65956116,7.877182,0.35707092,-0.08526611,-0.09313965,-4.3714523,-12.864494,-31.038094
1.458593923018668E18,0.33285522,0.5856018,7.7653503,0.19792175,-0.019042969,-0.098480225,-4.3714523,-13.206673,-30.954361
1.4585939230388096E18,0.76686096,0.44958496,8.453629,-0.035995483,0.049316406,-0.13586426,-4.1130066,-13.463402,-30.954361
1.4585939230589512E18,0.98872375,0.2879181,9.335922,-0.07337952,0.08456421,-0.2159729,-3.8545609,-13.463402,-30.870628
1.4585939230790927E18,0.5475006,0.12863159,9.621094,-0.09901428,0.09524536,-0.24267578,-3.6823273,-13.463402,-30.786896
1.4585939230992343E18,-0.03916931,0.33976746,9.799469,-0.0723114,0.05038452,-0.17752075,-3.7683487,-13.71994,-30.786896
1.458593923119376E18,-0.1055603,0.5610657,9.872299,-0.057357788,0.052520752,-0.10809326,-3.7683487,-13.71994,-30.451775
1.4585939231395177E18,-0.09663391,0.79530334,9.985489,0.0398407,0.06427002,-0.044006348,-3.4236908,-13.805389,-30.535698
1.4585939231596593E18,-0.046951294,1.1342468,9.409729,0.13490295,0.022613525,-0.015167236,-3.1654358,-13.805389,-30.703163
1.4585939231798008E18,0.06864929,1.4469757,8.654648,0.14665222,0.013000488,-0.011962891,-2.7347565,-13.805389,-30.954552
1.4585939231999424E18,0.29873657,1.4573975,8.288605,0.071884155,0.025817871,-0.055755615,-2.648735,-13.6343,-30.954552
1.458593923220084E18,0.26423645,1.2035522,8.501862,-0.0050201416,0.022613525,-0.098480225,-2.4765015,-13.805389,-31.289673
1.4585939232402255E18,0.037475586,0.9482727,8.898804,-0.024246216,-0.013702393,-0.08673096,-2.304268,-13.805389,-31.20575
1.4585939232553318E18,0.07614136,0.85539246,8.9596405,-0.048812866,-0.038269043,-0.02798462,-2.0460129,-13.891029,-31.289673
1.458593923280509E18,0.41119385,0.9767914,9.076462,-0.11503601,-0.019042969,-0.013031006,-1.9598007,-14.1477585,-31.457329
1.4585939233006505E18,0.627182,1.1641693,9.424988,-0.13319397,-8.8500977E-4,-0.039733887,-2.132225,-14.233398,-31.541061
1.458593923320792E18,0.4286499,1.2742615,9.723358,-0.11289978,-0.0040893555,-0.080322266,-2.3044586,-14.404488,-31.624985
1.4585939233409336E18,0.24821472,1.2953033,9.701263,-0.07017517,-0.0030212402,-0.055755615,-2.3906708,-14.575577,-31.708717
1.4585939233610752E18,0.20410156,1.4441681,9.634827,-0.052017212,0.03970337,-0.016235352,-2.3044586,-14.917755,-31.541061
1.4585939233812265E18,0.2778473,1.5768433,9.4049225,-0.031723022,0.011932373,-0.0023498535,-2.3906708,-14.917755,-31.457329
1.458593923401368E18,0.35813904,1.6997833,9.177704,-0.012496948,-0.024383545,-0.029052734,-2.4766922,-15.1742935,-31.624985
1.4585939234215096E18,0.2098999,1.7386627,9.026672,-0.087265015,-0.008361816,-0.037597656,-2.5627136,-15.003204,-31.79245
1.4585939234416512E18,0.22904968,1.6664886,9.47139,-0.08192444,0.016204834,-0.023712158,-2.4766922,-15.088654,-31.79245
1.4585939234617928E18,0.12397766,1.5997314,9.626755,-0.050949097,-0.011566162,0.0029907227,-2.5627136,-14.917564,-31.876183
1.4585939234819343E18,-0.0050201416,1.5323792,9.525848,-0.032791138,-0.0051574707,0.05319214,-2.4765015,-14.746475,-31.876183
1.458593923502076E18,-0.048324585,1.623169,9.493362,-0.04988098,0.013000488,0.09164429,-2.562523,-14.575386,-32.12757
1.4585939235222177E18,0.018310547,1.6810608,9.742416,-0.054153442,-0.022247314,0.101257324,-2.4763107,-14.404297,-32.295227
1.4585939235423593E18,-0.011291504,1.6281738,10.006714,-0.04560852,-0.0030212402,0.11941528,-2.3900986,-14.489937,-32.546616
1.4585939235625009E18,-0.005126953,1.6281738,10.149628,0.0035247803,0.032226563,0.15466309,-2.3900986,-14.489937,-32.546616
1.4585939235826424E18,0.056625366,1.6473389,10.025177,0.06227112,0.034362793,0.17495728,-2.3040771,-14.575386,-32.37915
1.458593923602784E18,-0.06790161,1.7335358,9.904846,0.08576965,0.09738159,0.20272827,-2.3040771,-14.233208,-32.462883
1.4585939236229256E18,-0.36846924,1.8275299,9.878464,0.14131165,0.09631348,0.24331665,-2.3040771,-14.147568,-32.462883
1.4585939236430671E18,-0.5305481,2.0631104,9.456955,0.18830872,0.04611206,0.30633545,-2.2180557,-14.318657,-32.63035
1.458593923663209E18,-0.5323944,2.3035889,9.109711,0.15412903,-0.044677734,0.33303833,-2.2180557,-14.318657,-32.295227
1.4585939236833505E18,-0.22727966,2.0095978,8.96608,-0.027450562,-0.060699463,0.29779053,-2.2180557,-14.404106,-32.37896
1.458593923703492E18,0.06434631,1.0682678,9.751877,-0.20689392,-0.001953125,0.23049927,-2.304268,-13.976288,-32.211304
1.4585939237236337E18,0.107559204,-0.16098022,11.093994,-0.23252869,-0.0030212402,0.20272827,-2.1320343,-13.719749,-31.959915
1.4585939237437752E18,-0.40020752,-0.85321045,12.125717,-0.009292603,0.07922363,0.30099487,-2.2180557,-13.6343,-32.043648
1.4585939237639168E18,-0.5947571,-0.22962952,10.789703,0.32289124,0.03756714,0.43771362,-2.1318436,-13.71994,-32.12738
1.4585939237840584E18,-0.0717926,0.52267456,8.7247925,0.33677673,-0.040405273,0.44198608,-2.1318436,-13.634491,-31.959915
1.4585939238042E18,0.23634338,1.0858002,7.8918457,0.18510437,-0.07244873,0.31381226,-2.0456314,-13.463402,-31.876183
1.4585939238243418E18,0.4786377,0.9425812,8.196182,0.024887085,-0.098083496,0.17816162,-1.95961,-13.548851,-31.959915
1.4585939238444833E18,0.59306335,0.5504303,9.215469,-0.07551575,-0.06817627,0.06387329,-2.0458221,-13.548851,-31.959915
1.458593923864625E18,0.54859924,0.31925964,9.8029175,-0.062698364,-0.014770508,-0.042938232,-1.95961,-13.80558,-31.876183
1.4585939238847665E18,0.1642456,0.2855835,9.732407,-0.052017212,-0.001953125,-0.13479614,-2.0458221,-13.891029,-32.211304
1.458593923904908E18,-0.36112976,0.3062439,9.634277,-0.08406067,0.049316406,-0.15829468,-1.7873764,-13.976479,-32.211304
1.4585939239250496E18,-0.88212585,0.40925598,9.604279,-0.08833313,0.092041016,-0.09741211,-1.7011642,-13.890839,-32.295227
1.4585939239451912E18,-0.87364197,0.6212616,9.37059,-0.031723022,0.06854248,-0.005554199,-1.4427185,-14.147377,-32.462692
1.4585939239653327E18,-0.6905365,0.9828491,9.132446,0.006729126,0.040771484,0.008331299,-1.4427185,-13.976288,-32.546425
1.4585939239854746E18,-0.7778473,1.1257935,8.834045,0.051589966,-0.016906738,0.01260376,-1.3565063,-13.805199,-32.630157
1.458593924005616E18,-0.6905365,1.1683807,8.417969,0.0045928955,-0.057495117,0.013671875,-1.0980606,-13.54866,-32.71389
1.4585939240257577E18,-0.48190308,1.0448914,8.614944,-0.040267944,-0.048950195,0.008331299,-1.2702942,-13.46302,-32.629967
