time,ax,ay,az,gx,gy,gz,mx,my,mz
1.4585935823033398E18,-1.4867401,1.589859,8.837952,0.016296387,-0.3461609,-0.060302734,19.40155,-33.567047,-45.869064
1.4585935823234813E18,-1.0737152,1.7175293,8.755127,-0.21228027,-0.14108276,-0.05923462,19.315338,-33.310318,-45.952797
1.4585935823436232E18,-1.1620331,1.7785034,9.036514,-0.09799194,-0.13253784,-4.8828125E-4,19.229126,-33.395958,-46.03653
1.4585935823587292E18,-1.2102356,1.7287598,9.449707,-0.032836914,-0.055633545,0.017669678,18.97068,-33.395958,-46.120262
1.4585935823839063E18,-0.90470886,1.5650482,9.460785,-0.049926758,-0.046020508,0.0037841797,18.712234,-33.481407,-46.455383
1.458593582404048E18,-1.296051,1.5157318,9.26683,-0.057403564,-0.1368103,0.00592041,18.453789,-33.481407,-46.70677
1.458593582429225E18,-1.0832977,1.4988556,8.982849,-0.14071655,-0.10583496,0.05291748,18.195343,-33.481407,-47.041893
1.458593582444331E18,-0.7007446,1.6465149,9.137283,-0.17382813,0.011657715,0.047576904,18.109322,-33.395958,-47.041893
1.458593582469508E18,-0.6905365,1.5845032,9.855392,-0.030700684,-0.05456543,-0.0026245117,17.937088,-33.31051,-46.95816
1.4585935824846141E18,-0.830719,1.4688263,9.723328,0.10601807,-0.15283203,-0.046417236,17.678642,-33.22506,-46.874428
1.458593582504756E18,-0.98490906,1.5515442,9.025894,0.019500732,-0.033203125,-0.040008545,17.59262,-32.96833,-46.95835
1.4585935825248975E18,-1.0492096,1.5515442,9.414291,-0.008270264,-0.001159668,-0.023986816,17.420387,-32.79724,-47.20974
1.458593582545039E18,-1.0354004,1.5323792,9.614716,0.03765869,-0.024658203,-0.01864624,17.506409,-32.626152,-47.042274
1.4585935825651807E18,-1.1389618,1.5515442,9.299561,0.007751465,0.022338867,0.012329102,17.59262,-32.540703,-46.95854
1.4585935825853222E18,-1.0836487,1.5323792,9.387558,0.014160156,0.003112793,0.042236328,17.420387,-32.455063,-46.87481
1.4585935826104993E18,-0.8701477,1.570694,9.5216675,0.030181885,-0.0032958984,0.017669678,17.248154,-32.369423,-46.791077
1.4585935826256054E18,-0.9739685,1.6013947,9.529282,0.04727173,-0.013977051,0.0037841797,17.248154,-32.283783,-46.95854
1.4585935826457472E18,-1.0206146,1.694397,9.176819,0.018432617,0.040496826,0.031555176,17.162132,-32.54032,-47.126198
1.4585935826658888E18,-0.8824005,1.7239685,9.196121,0.025909424,-0.021453857,0.025146484,17.162132,-32.71141,-47.042274
1.4585935826860303E18,-0.7671814,1.589859,9.467621,0.030181885,-0.010772705,-0.0068969727,17.248154,-32.79686,-47.042274
1.458593582706172E18,-1.0276947,1.6090088,9.280548,-0.0178833,0.025543213,0.00592041,17.162132,-32.79686,-46.95835
1.458593582731349E18,-1.0141449,1.6402435,9.1618805,0.0024108887,0.008453369,0.027282715,17.162132,-32.62577,-47.042084
1.458593582746455E18,-1.0162354,1.666214,9.311752,-0.0029296875,-0.051361084,0.053985596,17.420387,-32.71141,-46.790695
1.4585935827665966E18,-0.794281,1.5991058,9.558685,0.06008911,-0.04815674,0.061462402,17.506409,-32.8825,-46.95835
1.4585935827867382E18,-0.7288666,1.7152863,9.237961,0.016296387,-0.016113281,0.041168213,17.334175,-33.05359,-46.87462
1.45859358280688E18,-0.6621094,1.7721558,9.047653,-0.010406494,-0.031066895,0.009124756,17.334175,-33.13923,-46.95835
1.4585935828270216E18,-0.74031067,1.7162323,9.5216675,0.010955811,-0.0663147,-0.007965088,17.161942,-32.96814,-47.042274
1.4585935828471631E18,-0.92059326,1.6663513,9.243546,-0.005065918,-0.044952393,0.017669678,17.07592,-32.79705,-46.707153
1.4585935828723402E18,-0.73947144,1.6212311,9.262009,0.017364502,-0.078063965,-0.0015563965,17.07592,-32.79705,-46.62342
1.4585935828874463E18,-0.98773193,1.6379852,9.282883,-0.0039978027,-0.084472656,0.019805908,16.989708,-33.310318,-46.372032
1.4585935829075878E18,-0.87519836,1.5976868,9.296158,-0.009338379,-0.055633545,0.049713135,16.989708,-33.13923,-46.455765
1.4585935829277294E18,-0.5947571,1.6396637,9.395233,-0.0178833,-0.012908936,0.0037841797,17.07592,-32.96814,-46.28811
1.458593582947871E18,-0.71014404,1.6473389,9.348816,0.032318115,-0.06845093,-0.022918701,16.989708,-32.96814,-46.204376
1.4585935829680128E18,-0.74801636,1.7239685,9.460007,0.06542969,-0.21478271,-0.04321289,17.07573,-32.79705,-46.204376
1.4585935829881544E18,-0.48384094,1.864624,9.004395,0.0152282715,-0.18807983,-0.07739258,17.247963,-33.05378,-46.28811
1.4585935830133312E18,-0.63894653,1.8707275,9.183014,-0.061676025,-0.13253784,-0.13186646,17.333984,-33.05378,-46.539497
1.4585935830284375E18,-0.88212585,1.7599182,9.455811,-0.029632568,-0.1581726,-0.09555054,17.075539,-32.88269,-46.790886
1.458593583048579E18,-0.7242279,1.7120514,9.375671,-0.025360107,-0.12399292,-0.049621582,17.16175,-32.454872,-46.87462
1.4585935830687206E18,-0.6811218,1.6759186,9.733017,0.0024108887,-0.09088135,-0.0154418945,16.903496,-32.454872,-47.042274
1.4585935830888622E18,-0.6192627,1.6519318,9.455734,0.04940796,-0.08660889,-0.004760742,16.731262,-32.369423,-47.20993
1.458593583109004E18,-0.39590454,1.7094116,9.2845,0.028045654,-0.09942627,-0.05709839,16.64524,-32.455063,-47.20993
1.4585935831291456E18,-0.7872467,1.6765137,9.360184,0.019500732,-0.08981323,-0.048553467,16.386986,-32.540512,-47.377396
1.4585935831543224E18,-0.7596283,1.5956573,9.32254,0.007751465,-0.033203125,-4.8828125E-4,16.12854,-32.454872,-47.293663
1.4585935831694287E18,-0.52523804,1.6483154,9.281708,0.009887695,-0.035339355,-0.017578125,15.784073,-32.369423,-47.126007
1.4585935831895703E18,-0.55644226,1.6355896,9.341843,0.0056152344,-0.04815674,-0.0368042,15.870285,-32.626152,-47.126007
1.458593583209712E18,-0.6522217,1.6289825,9.239227,0.0066833496,-0.06311035,-0.025054932,15.525818,-32.88288,-47.042274
1.4585935832298534E18,-0.55644226,1.6512909,9.55603,0.046203613,-0.06738281,-0.027191162,15.525818,-32.88288,-46.95854
1.458593583249995E18,-0.50608826,1.7119293,9.430786,0.09106445,-0.09515381,-0.051757813,15.611839,-33.13942,-46.95854
1.4585935832701368E18,-0.3648529,1.6206055,10.668915,0.28118896,-0.19555664,-0.060302734,15.525627,-33.05378,-47.20974
1.4585935832902784E18,-0.28909302,1.588974,11.954773,0.86117554,-0.37820435,-0.07952881,15.611649,-33.05378,-46.87462
1.45859358331042E18,-1.1704712,1.8889618,8.688736,0.98828125,-0.65164185,0.03475952,15.439415,-33.31051,-46.87462
1.4585935833305615E18,-0.12219238,2.3793945,7.98378,0.52471924,-0.6131897,0.041168213,15.267181,-33.909225,-46.87462
1.4585935833507154E18,-0.06866455,2.2534332,9.805481,0.48947144,-0.3536377,-0.028259277,14.75029,-34.251404,-46.539497
1.4585935833809277E18,0.25149536,2.35289,9.0191345,0.41897583,-0.35150146,-0.09875488,14.577866,-34.593582,-46.62323
1.4585935833909985E18,0.3440094,2.2493896,8.643066,0.31430054,-0.27246094,-0.15750122,14.405441,-35.1923,-46.539307
1.4585935834161754E18,-0.1807251,2.2869873,8.866028,0.11883545,-0.053497314,-0.17993164,14.146996,-35.705566,-46.287918
1.4585935834363172E18,-0.2743225,2.4189148,9.561874,0.09213257,-0.16885376,-0.08380127,13.802528,-35.962296,-45.869064
1.4585935834514232E18,-0.24073792,2.3296204,8.854187,0.06970215,0.003112793,-0.084869385,13.371849,-36.475563,-45.617676
1.4585935834715648E18,0.06384277,2.419632,9.419922,-0.008270264,-0.09088135,-0.0058288574,13.371849,-36.7321,-45.282364
1.4585935834917064E18,0.15242004,2.4847717,8.818237,-0.006134033,0.13342285,-0.066711426,13.1996155,-36.90319,-45.45002
1.4585935835118482E18,0.2170105,2.5009613,9.065445,0.023773193,-0.042816162,-0.089141846,13.544083,-36.90319,-45.45002
1.4585935835319898E18,0.1898346,2.5535583,9.252563,0.079315186,-0.15710449,-0.12973022,13.371849,-36.98864,-45.282555
1.4585935835521313E18,-0.094573975,2.4519806,8.880905,0.017364502,0.0105896,-0.07525635,13.371849,-37.15973,-45.11509
1.458593583572273E18,0.11665344,2.5151825,8.976944,-0.057403564,0.08215332,-0.044281006,13.285828,-37.07428,-45.198822
1.4585935835924145E18,0.105026245,2.489273,9.110275,-0.07876587,0.1088562,-0.068847656,13.285828,-37.15973,-44.8637
1.4585935836175916E18,-0.0854187,2.455719,9.345505,-0.005065918,-0.027862549,-0.04748535,13.458061,-37.15973,-44.947624
1.4585935836326976E18,-0.11579895,2.4902954,9.12709,0.0056152344,-0.047088623,-0.042144775,13.371849,-36.98864,-45.11528
1.4585935836528392E18,-0.09976196,2.4328156,9.077316,-0.03604126,0.024475098,-0.04107666,13.544083,-36.90319,-44.86389
1.458593583672981E18,-0.14768982,2.3987427,9.176819,-0.077697754,0.08215332,-0.027191162,13.371849,-36.90319,-44.696236
1.4585935836931226E18,-0.22697449,2.3255615,9.2534485,-0.07449341,0.101379395,0.014465332,13.544083,-36.81774,-44.8637
1.458593583713264E18,-0.15411377,2.4260254,9.283142,-0.06060791,0.038360596,0.017669678,13.458061,-36.646652,-44.779778
1.4585935837334057E18,-0.09703064,2.3757172,9.453659,-0.024291992,-0.0043640137,0.011260986,13.458061,-36.475563,-44.696045
1.4585935837535473E18,-0.16215515,2.3592834,9.362228,0.048339844,-0.03427124,0.02407837,13.630295,-36.561203,-44.947433
1.4585935837736888E18,0.15252686,2.4519806,9.100189,0.012023926,0.0052490234,0.011260986,13.630295,-36.390114,-45.198822
1.4585935837938304E18,-0.004257202,2.4362183,9.228806,-0.032836914,0.045837402,0.004852295,13.802528,-36.475754,-45.198822
1.4585935838139722E18,-0.0030059814,2.5286102,9.2612915,-7.9345703E-4,0.0020446777,0.010192871,13.802528,-36.561203,-45.45021
1.4585935838341138E18,0.07159424,2.5019684,9.169342,-0.014678955,0.028747559,-0.012237549,13.974762,-36.732292,-45.533943
1.4585935838542554E18,0.02897644,2.4689484,9.121536,-0.05419922,0.08642578,-0.0058288574,13.974762,-36.90338,-45.282555
1.4585935838794322E18,-0.01940918,2.4711304,9.254059,-0.05419922,0.043701172,-0.021850586,14.233208,-36.732292,-45.282555
1.4585935838945385E18,-0.021575928,2.4400482,9.207901,-0.059539795,0.05545044,-0.026123047,14.233208,-37.07447,-45.19863
1.45859358391468E18,-0.08143616,2.4096985,9.161621,-0.0670166,0.062927246,-0.013305664,14.405441,-36.98883,-45.114708
1.4585935839348216E18,-0.08946228,2.380127,9.286987,-0.025360107,0.036224365,-0.023986816,14.31942,-36.90338,-44.86332
1.4585935839549632E18,-0.14039612,2.3453064,9.081024,-0.04244995,0.034088135,-0.027191162,14.233398,-37.07447,-44.779587
1.458593583975105E18,-0.28822327,2.3059692,9.347244,-0.043518066,0.03302002,0.00592041,14.147186,-36.98902,-44.444275
1.4585935839952466E18,-0.18496704,2.366455,9.322617,-0.021087646,0.007385254,0.014465332,14.147186,-36.817932,-44.5282
1.4585935840153882E18,-0.04826355,2.3854065,9.176819,-0.025360107,0.014862061,5.79834E-4,14.319611,-36.390114,-44.695854
1.4585935840355297E18,-0.13624573,2.3651276,9.284119,-0.041381836,-0.001159668,-0.013305664,14.147186,-36.475754,-44.779778
1.4585935840556713E18,-0.18475342,2.3676605,9.192184,-0.045654297,0.03729248,0.014465332,14.147186,-36.219025,-44.8637
1.4585935840758129E18,-0.080459595,2.3399963,9.24321,-0.06808472,0.026611328,0.0037841797,13.974953,-36.219025,-44.947624
1.4585935840959544E18,-0.21308899,2.3318634,9.478195,0.0056152344,-0.00970459,0.0037841797,14.060974,-36.475563,-45.199013
1.4585935841160963E18,-0.26307678,2.2795563,9.277405,0.030181885,-0.0524292,0.027282715,14.146996,-36.218834,-45.4504
1.4585935841362378E18,-0.10496521,2.298706,9.11647,-0.028564453,-0.022521973,0.0262146,13.974762,-36.218834,-45.70179
1.4585935841563794E18,-0.19242859,2.3002472,9.23584,-0.04458618,-0.001159668,0.037963867,13.974762,-36.218834,-45.785522
1.458593584176521E18,-0.12724304,2.298706,9.130798,-0.07449341,0.031951904,0.033691406,13.802338,-36.475563,-45.869255
1.4585935841966625E18,0.094940186,2.356186,9.384094,-0.020019531,0.01272583,0.010192871,13.716316,-36.561012,-46.03672
1.458593584216804E18,-0.0284729,2.317871,9.115936,-0.020019531,-0.027862549,-0.01651001,13.716316,-36.561012,-46.120453
1.4585935842369457E18,0.018310547,2.388855,8.539993,-0.1578064,0.06399536,-0.04534912,13.716316,-36.561012,-46.37184
1.4585935842570872E18,-0.36418152,2.099594,8.217545,-0.5369873,0.46347046,-0.009033203,13.716316,-36.389923,-46.287918
1.458593584277229E18,-0.5452728,2.0799713,9.443512,-0.571167,0.53930664,0.078552246,13.544083,-36.389923,-46.287918
1.4585935842973706E18,-0.32963562,2.0113373,9.8090515,-0.34579468,0.25091553,0.08175659,14.060974,-36.133194,-46.287918
1.4585935843175122E18,-0.09463501,1.9538574,9.655777,-0.21655273,0.083221436,0.020874023,14.147186,-35.705376,-46.455574
1.4585935843376538E18,-0.18449402,1.9954681,9.7039795,-0.108673096,-0.01184082,-0.023986816,14.147186,-35.277557,-46.539497
1.4585935843729016E18,-0.36161804,2.0629578,9.461945,0.034454346,-0.07485962,-0.004760742,14.31942,-34.84993,-46.95854
1.458593584377937E18,-0.30737305,2.0643005,9.344742,0.026977539,-0.062042236,0.0069885254,14.491653,-34.50775,-46.95854
1.4585935843980785E18,-0.23074341,2.0378876,9.3949585,0.017364502,-0.033203125,-0.009033203,14.577675,-34.422302,-47.042274
1.4585935844232556E18,-0.30033875,2.0375366,9.425873,0.045135498,-0.11224365,-0.01864624,14.750099,-34.336853,-47.126198
1.458593584443397E18,-0.24290466,1.9851685,9.457199,0.09320068,-0.16030884,-0.021850586,15.008545,-34.336853,-47.042274
1.4585935844585034E18,-0.1837616,1.9798431,9.312775,0.08999634,-0.16137695,-0.037872314,15.094566,-34.507942,-47.042274
1.4585935844836803E18,-0.35461426,1.9155426,9.216476,0.03765869,-0.096221924,-0.014373779,15.1807785,-34.67903,-46.790886
1.4585935844987866E18,-0.36738586,1.8797455,9.2751465,-0.01574707,-0.035339355,0.011260986,15.266991,-34.85012,-46.790886
1.458593584518928E18,-0.2828827,1.9208832,9.363068,-0.032836914,0.015930176,0.015533447,15.094757,-34.76448,-46.455765
1.4585935845390697E18,-0.3867798,1.9730225,9.437744,-0.01574707,-0.0043640137,0.010192871,15.008545,-34.85012,-46.539497
1.4585935845592113E18,-0.46064758,1.9444427,9.363541,-0.021087646,0.023406982,0.037963867,15.180969,-34.85012,-46.455765
1.458593584579353E18,-0.3755188,1.9155426,9.366974,-0.026428223,0.031951904,0.05078125,15.266991,-34.67903,-46.539497
1.4585935845994947E18,-0.30737305,1.9377747,9.535889,0.009887695,0.020202637,0.05291748,15.266991,-34.507942,-46.707153
1.4585935846246715E18,-0.1209259,1.9972992,9.267487,-0.0039978027,-0.010772705,0.047576904,14.836311,-34.507942,-46.87481
1.4585935846397778E18,-0.12640381,2.0284424,9.357819,0.0013427734,9.765625E-4,0.036895752,14.750099,-34.422493,-47.20993
1.4585935846599194E18,-0.16279602,2.002655,9.417206,0.009887695,-0.016113281,0.02835083,14.922333,-34.508133,-47.377396
1.458593584680061E18,-0.1277008,1.9802704,9.289169,-7.9345703E-4,-0.020385742,0.018737793,15.008354,-34.679222,-47.54486
1.4585935847002025E18,-0.18151855,1.9812622,9.445038,-0.014678955,0.008453369,0.025146484,15.094566,-34.76467,-47.628784
1.458593584720344E18,-0.021850586,2.0678864,9.408569,0.028045654,-0.02999878,0.008056641,14.922142,-34.593582,-47.54486
1.458593584740486E18,-0.06159973,2.087967,9.310928,0.026977539,-0.03213501,-0.02078247,14.577675,-34.507942,-47.46113
1.4585935847606275E18,-0.19969177,2.0688171,9.387558,0.044067383,-0.057769775,-0.014373779,14.577675,-34.336853,-47.377396
1.458593584780769E18,-0.17089844,2.0113373,9.332474,0.059020996,-0.06524658,-0.022918701,14.663887,-34.165764,-47.20974
1.4585935848009106E18,-0.23469543,1.9730225,9.263382,0.077178955,-0.07058716,-0.031463623,14.577675,-34.422302,-46.87462
1.4585935848260877E18,-0.3648529,1.8894043,9.32312,0.056884766,-0.11117554,-0.003692627,14.319229,-34.50775,-46.790886
1.4585935848411937E18,-0.22000122,1.8690491,9.166077,0.042999268,-0.08874512,0.0027160645,14.146996,-34.50775,-46.790886
1.4585935848663708E18,-0.26771545,1.9146423,9.232513,-0.05419922,0.014862061,0.014465332,14.146996,-34.50775,-46.790886
1.4585935848814769E18,-0.23013306,1.9638977,9.3784485,-0.032836914,0.030883789,0.031555176,14.146996,-34.76429,-46.790886
1.4585935849016187E18,-0.05831909,2.053299,9.345612,0.004547119,0.013793945,0.015533447,14.146996,-34.76429,-46.790886
1.4585935849217603E18,-0.12112427,2.0688171,9.1466675,0.018432617,-0.006500244,0.021942139,13.974762,-34.84993,-46.706963
1.4585935849419018E18,-0.077041626,2.11203,9.110001,-0.032836914,0.009521484,0.02407837,13.974762,-35.02102,-46.706963
1.4585935849620434E18,-0.026947021,2.1315765,9.274246,-0.046722412,0.018066406,-0.013305664,13.802528,-35.02102,-46.874428
1.458593584982185E18,-0.17326355,2.0976715,9.348984,-0.041381836,-0.013977051,-0.007965088,13.716507,-35.10666,-46.70677
1.4585935850023265E18,-0.09663391,2.049652,9.434845,-0.022155762,0.025543213,-0.01651001,13.974953,-35.02121,-46.37165
1.4585935850275036E18,-0.28822327,2.0750885,9.483353,0.0013427734,0.014862061,-0.0015563965,13.716507,-35.02121,-46.539116
1.45859358504261E18,-0.3265381,2.1262817,9.479721,0.018432617,0.0020446777,0.0016479492,13.630486,-34.85012,-46.539116
1.4585935850627515E18,-0.26905823,2.1454468,9.272614,-0.0178833,0.06506348,-0.0026245117,13.802719,-35.10685,-46.539116
1.458593585082893E18,-0.42085266,2.0511322,9.408218,2.746582E-4,0.043701172,0.025146484,14.061165,-35.27794,-46.62304
1.4585935851030346E18,-0.24227905,1.9653778,9.23056,0.003479004,0.027679443,0.042236328,14.061165,-35.19249,-46.706963
1.4585935851231762E18,-0.16218567,1.9347076,9.053818,-0.028564453,0.038360596,0.023010254,14.405823,-35.0214,-46.706963
1.4585935851483533E18,-0.22076416,1.9301147,9.392975,-0.025360107,0.015930176,0.033691406,14.6642685,-34.76467,-46.790886
1.4585935851634593E18,-0.020004272,2.0796661,9.272614,-0.026428223,0.026611328,5.79834E-4,14.6642685,-35.02121,-47.042274
1.4585935851785656E18,-0.13494873,2.0272522,9.288544,-0.030700684,-0.012908936,0.0016479492,14.836502,-35.02121,-46.790886
1.4585935852037427E18,-0.025604248,2.1180267,9.341003,0.0013427734,-0.012908936,0.015533447,14.9225235,-35.02121,-46.790886
1.4585935852238843E18,0.027877808,2.1646118,9.186417,0.0056152344,9.765625E-4,0.013397217,14.9225235,-34.93557,-46.62323
1.4585935852440259E18,0.24072266,2.2412415,8.939438,-0.039245605,0.016998291,-0.012237549,14.750099,-34.84993,-46.37184
1.4585935852641674E18,-0.03807068,2.2603912,9.09964,-0.061676025,-0.001159668,-0.05709839,14.922333,-34.5932,-46.204185
1.458593585284309E18,-0.24990845,2.1198425,9.145065,-0.059539795,-0.015045166,-0.01651001,14.836121,-34.50775,-46.120453
1.4585935853044506E18,-0.27983093,2.1155243,9.340851,-0.039245605,0.020202637,0.031555176,14.749908,-34.422302,-46.03653
1.458593585324592E18,-0.13179016,2.1294556,9.261444,-0.037109375,0.004180908,0.033691406,14.836121,-34.336853,-45.617485
1.458593585344734E18,-0.08103943,2.2298737,9.146317,-0.0809021,0.054382324,0.02407837,14.836121,-34.422493,-45.70141
1.4585935853749463E18,-0.2803955,2.2569122,9.119339,-0.09585571,0.078948975,0.061462402,14.922333,-34.251404,-45.45002
1.458593585385017E18,-0.3265381,2.2530518,9.135666,-0.09158325,0.06826782,0.06680298,15.008545,-34.080315,-45.617676
1.4585935854051587E18,-0.22293091,2.3022156,9.103699,-0.08303833,0.046905518,0.09777832,15.094757,-33.909225,-45.869064
1.4585935854303357E18,-0.2631836,2.3296204,9.050125,-0.077697754,0.034088135,0.10952759,15.094757,-33.823776,-45.70141
1.4585935854454418E18,-0.2591095,2.3760986,9.167633,-0.09585571,0.021270752,0.13195801,14.836311,-33.738136,-45.952797
1.4585935854655834E18,-0.20118713,2.4344788,9.331757,-0.102264404,0.016998291,0.13516235,14.836311,-33.652496,-45.952797
1.458593585485725E18,-0.120788574,2.56456,9.087067,-0.1300354,-0.06951904,0.11273193,14.577866,-33.395767,-46.204185
1.4585935855058668E18,-0.38327026,2.581482,9.609009,0.025909424,-0.17098999,0.0892334,14.491844,-33.139038,-46.120262
1.4585935855260083E18,-0.41993713,2.4902954,9.368408,0.004547119,-0.20089722,0.08816528,14.233398,-33.310127,-46.37165
1.45859358554615E18,-0.45152283,2.3370361,9.311844,-0.07556152,-0.11758423,0.12554932,14.060974,-33.310127,-46.287727
1.4585935855662915E18,-0.28938293,2.2705536,9.359421,-0.12042236,-0.00970459,0.21313477,13.974762,-33.310127,-46.455193
1.458593585586433E18,-9.1552734E-5,2.4534912,9.492569,-0.08944702,0.050109863,0.29003906,14.146996,-33.395576,-46.95797
1.45859358561161E18,0.7019043,2.7432098,9.133911,-0.079833984,0.042633057,0.24945068,14.233208,-33.395576,-46.874237
1.4585935856267162E18,0.87176514,2.8691254,9.225647,-0.046722412,0.011657715,0.18322754,13.974762,-33.395576,-46.95816
1.4585935856468577E18,0.68885803,3.0451355,9.2204895,0.07077026,-0.0385437,0.14263916,14.233208,-33.395576,-47.125816
1.4585935856669996E18,0.43904114,3.3002777,8.649612,0.14981079,-0.018249512,0.08709717,14.146996,-33.566666,-47.377205
1.458593585687141E18,-0.06820679,3.640976,8.351822,0.16369629,-0.05456543,0.040100098,13.974762,-33.566666,-47.46113
1.4585935857072827E18,-0.018920898,3.7355804,8.053925,0.077178955,-0.13360596,-0.07525635,13.888741,-33.566666,-47.377396
1.4585935857274243E18,-0.0022735596,3.4822693,8.152435,-0.18450928,0.021270752,-0.21090698,13.630486,-33.481216,-47.126007
1.4585935857475658E18,-0.69970703,3.2905426,9.149246,-0.36715698,0.18789673,-0.23547363,13.286018,-33.395767,-46.95854
1.4585935857677074E18,-0.9697418,3.1507874,10.621399,-0.25180054,0.022338867,-0.22906494,13.544464,-33.310318,-46.790886
1.458593585787849E18,-1.0958252,2.8778687,11.51413,0.1572876,-0.15283203,-0.2546997,13.716698,-33.567047,-46.790886
1.4585935858079908E18,-1.5667572,3.0740204,10.508179,0.3687744,-0.08660889,-0.089141846,13.544273,-33.481598,-46.707153
1.4585935858281324E18,-1.5892029,3.2089539,9.367966,0.3687744,0.042633057,0.13302612,13.888931,-33.39615,-46.455765
1.458593585848274E18,-1.0420685,3.3873901,8.746185,0.41577148,0.0597229,0.33703613,14.147377,-33.3107,-46.37184
1.4585935858684155E18,-0.5023346,3.575058,7.974518,0.37091064,0.08428955,0.3840332,14.061165,-33.48179,-46.539497
1.458593585888557E18,-0.210495,3.6589508,7.7940216,0.30789185,0.08001709,0.40219116,14.233398,-33.567238,-46.707153
1.4585935859086986E18,0.16903687,4.0100555,7.8668365,0.3612976,-0.13787842,0.3413086,13.974953,-33.823776,-46.62323
1.4585935859288402E18,0.21850586,4.299347,7.767288,0.39974976,-0.402771,0.23770142,13.630295,-34.337044,-46.455574
1.4585935859489818E18,0.02218628,4.496521,7.2732697,0.30682373,-0.3322754,0.11807251,13.458061,-34.337044,-46.120262
1.4585935859691236E18,0.018463135,4.5305786,7.864563,0.023773193,-0.2906189,0.08816528,13.285828,-34.76467,-45.952606
1.4585935859892652E18,0.30967712,4.2948914,9.072769,0.0024108887,-0.20944214,0.039031982,12.855148,-35.02121,-45.701218
1.4585935860094067E18,0.19500732,4.368698,9.514694,0.1434021,-0.13574219,-0.0058288574,12.510681,-35.363388,-45.617485
1.4585935860295483E18,1.2207031E-4,4.4681244,9.263535,0.18399048,-0.122924805,-0.01864624,12.252426,-35.449028,-45.44983
1.4585935860496899E18,-0.02810669,4.508911,8.953934,0.117767334,-0.13574219,-0.026123047,11.99398,-35.791206,-45.282173
1.4585935860698314E18,0.045547485,4.3324738,9.3654175,-0.006134033,-0.143219,-0.028259277,12.080193,-35.962296,-44.86332
1.458593586089973E18,0.13894653,4.182953,9.944214,-0.08944702,-0.2211914,-0.017578125,11.735725,-35.876656,-45.030975
1.4585935861101146E18,0.037902832,4.060974,10.335541,-0.1439209,-0.14535522,-0.003692627,11.649704,-35.962105,-45.282364
1.4585935861302564E18,0.048843384,4.213974,10.510681,-0.15353394,-0.06524658,0.03262329,11.47747,-35.962105,-45.19863
1.458593586150398E18,0.5236969,4.3066864,10.45163,-0.16421509,-0.080200195,0.036895752,11.47747,-35.876656,-45.19863
1.4585935861705395E18,0.8849945,4.160721,10.552567,-0.11721802,-0.17098999,-0.025054932,11.391258,-35.705566,-45.030975
1.458593586190681E18,1.1199646,3.8743286,10.489105,-0.046722412,-0.21691895,-0.09555054,11.391258,-35.791016,-45.030975
1.4585935862108227E18,1.4471588,2.7103882,10.281769,-0.084106445,-0.2692566,-0.16497803,11.305237,-35.619926,-44.947243
1.4585935862309642E18,1.3888702,1.6587067,11.619812,0.052612305,-0.23080444,-0.12438965,11.305237,-35.1923,-45.030975
1.4585935862511058E18,1.1109314,1.3210297,11.449326,0.42858887,0.028747559,0.039031982,11.391449,-35.27794,-44.86332
1.4585935862712476E18,1.1711273,1.9817657,8.5229645,0.62939453,0.21994019,0.14370728,11.046791,-35.36358,-44.360542
1.4585935862913892E18,1.6407623,2.5544128,6.245285,0.2416687,0.11740112,0.05718994,10.96077,-35.36358,-44.02523
1.4585935863115308E18,2.0920105,2.6867218,6.819626,-0.10974121,-0.21691895,-0.16711426,10.702324,-35.36358,-43.941498
1.4585935863316723E18,2.2981567,2.2398224,8.405853,-0.18984985,-0.4668579,-0.40637207,10.702324,-35.0214,-43.857765
1.458593586351814E18,2.3173065,1.6166382,8.999084,-0.24325562,-0.5031738,-0.5644531,10.5299,-34.679222,-43.43872
1.4585935863719555E18,2.0033417,1.4748993,9.534744,-0.2849121,-0.35684204,-0.6381531,10.357475,-34.337044,-43.1036
1.458593586392097E18,1.0182495,1.5415802,10.029007,-0.22937012,-0.11331177,-0.62213135,9.840584,-34.165955,-43.1036
1.4585935864122386E18,0.42063904,1.8067017,9.241241,-0.10333252,0.2348938,-0.45550537,9.582138,-33.481598,-43.019867
1.4585935864323804E18,0.6057434,2.202652,8.46228,0.07824707,0.26159668,-0.3807373,9.582138,-33.05378,-43.019867
1.458593586452522E18,0.57463074,2.6186981,7.9947205,0.24914551,0.17828369,-0.3657837,9.6681595,-32.7116,-43.187523
1.4585935864726636E18,0.67066956,2.9556122,7.4798584,0.4595642,0.0736084,-0.34976196,9.754372,-32.283783,-42.936134
1.458593586492805E18,0.7187805,3.3092957,7.172394,0.5717163,-0.057769775,-0.36257935,9.754372,-32.283783,-42.76848
1.4585935865129467E18,0.8804321,3.6903687,7.1206055,0.6571655,-0.1368103,-0.359375,9.840584,-32.283783,-42.51728
1.4585935865330883E18,0.8828125,4.040924,6.896988,0.56851196,0.023406982,-0.32199097,10.013008,-32.540512,-42.18216
1.4585935865532298E18,0.6026306,4.224121,7.318466,0.41470337,0.060791016,-0.29421997,10.185242,-32.88269,-41.84704
1.4585935865733716E18,0.44747925,4.162796,8.178772,0.40829468,-0.042816162,-0.2675171,10.701942,-33.395958,-41.34426
1.4585935865935132E18,0.45373535,4.014221,9.133423,0.47772217,-0.2062378,-0.22372437,10.788155,-33.481598,-41.093063
1.4585935866136548E18,0.60440063,3.9463196,9.296371,0.55355835,-0.2489624,-0.17886353,10.615921,-33.738327,-40.506554
1.4585935866337964E18,0.32382202,4.0668335,8.304611,0.17010498,0.07254028,-0.06777954,10.529709,-34.166145,-40.255165
1.458593586653938E18,0.2995453,3.8773193,9.357788,-0.17489624,0.22528076,0.019805908,10.615921,-34.251595,-39.75258
1.4585935866740795E18,0.27618408,3.5440063,10.899429,-0.24645996,0.18255615,0.12982178,10.357475,-34.593773,-39.50119
1.458593586694221E18,-0.0393219,3.8889923,12.200104,0.013092041,0.23168945,0.2515869,10.357475,-34.593773,-39.333534
1.4585935867143626E18,-0.37875366,4.5560303,10.496323,0.16796875,0.27548218,0.37869263,10.357475,-34.679222,-39.16588
1.4585935867345044E18,0.32237244,4.238312,9.301987,-0.23364258,0.014862061,0.3551941,9.840775,-34.508133,-38.91449
1.458593586754646E18,0.5550537,2.9942474,11.966141,-0.37356567,0.029815674,0.3210144,9.582329,-34.337044,-38.495445
1.4585935867747876E18,-0.1423645,2.7343292,13.986435,0.39120483,-0.03640747,0.38082886,9.151649,-34.165955,-38.495445
1.4585935867949292E18,-0.29151917,3.0309143,10.051971,0.8462219,-0.31304932,0.36480713,8.807182,-33.909225,-38.32798
1.4585935868150707E18,-0.31362915,3.0334015,6.5802155,0.2341919,-0.3397522,0.24945068,8.204079,-33.994865,-38.32798
1.4585935868352123E18,-0.41358948,2.370346,8.050644,-0.4451294,-0.1998291,0.2782898,8.031845,-33.738327,-38.32798
1.4585935868553539E18,0.07702637,1.9213715,10.308838,-0.49853516,-0.08554077,0.3284912,7.34272,-33.567238,-38.244247
1.4585935868754954E18,0.7702637,1.6521149,10.321533,-0.21014404,-0.098358154,0.2718811,6.9120407,-33.22506,-37.99286
1.4585935868956372E18,0.84703064,1.7239685,9.38472,0.06436157,-0.09408569,0.17681885,6.395149,-32.96833,-37.909126
1.4585935869157788E18,0.7204132,2.0056763,7.8801575,0.26623535,-0.12185669,0.09991455,6.050682,-32.96833,-37.99286
1.4585935869359204E18,0.19882202,2.3536377,5.5937805,0.09320068,0.009521484,0.10739136,5.7922363,-32.88269,-37.825203
1.458593586956062E18,0.034622192,2.6983337,5.6546936,-0.09265137,0.11953735,0.10845947,5.361557,-33.05378,-37.825203
1.4585935869762035E18,-0.35534668,2.7873077,6.7239227,-0.0317688,0.121673584,0.123413086,5.01709,-32.88269,-37.908936
1.458593586996345E18,-0.3499756,2.9062347,7.4044647,0.24380493,-0.06524658,0.18322754,4.6726227,-32.7116,-37.573814
1.4585935870164867E18,-0.06869507,3.2270966,7.5385437,0.42004395,-0.16030884,0.23449707,4.500389,-32.540512,-37.322426
1.4585935870366285E18,0.31115723,3.7894135,7.4042206,0.5140381,-0.22866821,0.24517822,4.06971,-32.455063,-37.238693
1.45859358705677E18,0.6534424,4.0941772,6.924057,0.36557007,-0.19021606,0.2013855,3.811264,-32.626152,-37.071228
1.4585935870769116E18,0.99539185,4.028305,8.046921,0.14767456,-0.14962769,0.11807251,3.4666061,-32.626152,-36.56864
1.4585935870970532E18,0.9682007,4.08844,9.4214325,0.19787598,-0.14428711,0.076416016,3.0359268,-32.455063,-36.317444
1.4585935871171948E18,0.957077,4.0421143,9.394043,0.32177734,-0.2062378,0.029418945,2.6052475,-32.369614,-35.814667
1.4585935871373363E18,0.89959717,4.169464,8.489334,0.1434021,-0.1998291,-0.026123047,2.3468018,-32.540703,-35.395813
1.458593587157478E18,0.632782,4.2093964,8.460007,-0.2208252,-0.06417847,-0.05923462,2.088356,-32.540703,-35.31189
1.4585935871776195E18,0.43978882,4.0325317,9.598312,-0.5102844,0.11740112,-0.05923462,1.8299103,-32.455063,-34.892845
1.4585935871977613E18,0.2098999,3.7072601,10.63945,-0.5914612,0.3043213,0.05505371,1.5716553,-32.283974,-34.390068
1.4585935872179028E18,1.1152191,3.6345978,11.364441,-0.32977295,0.32354736,0.13729858,1.4856339,-31.941795,-34.390068
1.4585935872380444E18,2.0839844,3.9011688,11.171677,0.03552246,0.19110107,0.033691406,1.0551453,-31.770706,-34.641457
1.458593587258186E18,2.0021515,3.757553,9.95549,0.41577148,-0.104766846,-0.13186646,0.96912384,-31.856346,-34.557533
1.4585935872783276E18,1.7438049,3.6713104,8.809769,0.44995117,-0.29382324,-0.25042725,0.8829117,-31.770706,-34.4738
1.458593587298469E18,1.3397827,3.4539948,8.281296,0.35595703,-0.33654785,-0.31237793,0.7106781,-31.428528,-34.13849
1.4585935873186107E18,1.5702515,3.1223907,7.6286926,0.06756592,-0.3547058,-0.35830688,0.27999878,-31.171799,-33.8871
1.4585935873387523E18,2.2825928,2.5025482,7.294815,-0.50494385,-0.2489624,-0.42559814,0.02155304,-31.257439,-33.803368
1.458593587358894E18,2.6362305,1.9625549,9.51474,-0.9706421,-0.09301758,-0.5559082,-0.06465912,-31.171799,-33.971024
1.4585935873790356E18,1.6209106,1.559555,11.271774,-0.9631653,-0.047088623,-0.6103821,-0.2368927,-31.08635,-33.63571
1.4585935873991772E18,1.1664581,1.3510437,11.345276,-0.719635,-0.0022277832,-0.49502563,0.021362305,-30.744171,-33.384323
1.4585935874193188E18,1.1778107,1.5302887,10.33049,-0.6138916,0.25091553,-0.3668518,0.021362305,-30.145264,-33.468246
1.4585935874394604E18,0.7967987,2.2614899,9.7703705,-0.4248352,0.49871826,-0.2621765,0.10757446,-29.460907,-33.55198
1.458593587459602E18,0.325531,3.0395203,8.824127,-0.15353394,0.5008545,-0.22265625,0.3660202,-28.94764,-33.803368
1.4585935874797435E18,0.10643005,3.566986,7.8357544,0.08572388,0.34918213,-0.2258606,0.71048737,-28.605461,-33.971024
1.4585935874998853E18,-0.020004272,3.878891,7.2609863,0.19360352,0.2915039,-0.23013306,1.0549545,-28.177643,-34.054756
1.458593587520027E18,0.10949707,3.79039,7.1724854,0.2897339,0.27868652,-0.20236206,1.1411667,-27.921104,-33.8871
1.4585935875401684E18,0.095687866,3.7072144,7.4931183,0.35916138,0.21032715,-0.17459106,1.3134003,-27.578926,-33.971024
1.45859358756031E18,-0.028167725,3.7054138,8.002869,0.52471924,0.015930176,-0.11477661,1.1411667,-27.407837,-33.719635
1.4585935875804516E18,0.24406433,3.7239227,8.328049,0.63046265,-0.04815674,-0.056030273,1.1411667,-27.322388,-33.216858
1.4585935876005932E18,0.66030884,3.9895172,8.151657,0.6486206,-0.012908936,-0.009033203,1.3134003,-27.408028,-33.133125
1.4585935876207347E18,0.91874695,4.2545624,7.98201,0.46170044,0.11846924,-0.026123047,0.9689331,-27.750206,-32.63035
1.4585935876408763E18,0.6903229,4.348648,8.389862,0.30895996,0.144104,-0.06137085,0.9689331,-27.921295,-32.211304
1.458593587661018E18,0.42765808,4.195389,8.893356,0.2138977,0.06933594,-0.05496216,0.7106781,-28.006935,-31.79245
1.4585935876811597E18,0.35334778,3.9356384,9.417862,0.10494995,-0.0043640137,-0.029327393,0.62446594,-28.349113,-31.541061
1.4585935877013012E18,0.42063904,3.5283356,10.066772,-0.027496338,0.028747559,0.041168213,0.27999878,-28.520203,-31.20575
1.4585935877214428E18,0.15325928,3.4473572,11.358368,2.746582E-4,0.19216919,0.1661377,0.27999878,-28.776741,-31.038094
1.4585935877415844E18,-0.21232605,3.9945831,11.325714,0.25982666,0.15264893,0.25585938,0.19378662,-29.03328,-30.95417
1.458593587761726E18,0.1748352,4.0525665,9.814484,0.18292236,-0.15710449,0.3060608,-0.32310486,-29.118729,-30.535126
1.4585935877818675E18,0.83631897,3.803894,10.120483,0.048339844,-0.098358154,0.2644043,-0.49552917,-28.94764,-30.36766
1.4585935878020093E18,0.05128479,3.4413757,10.787613,0.23739624,-0.041748047,0.28790283,-0.9262085,-28.94764,-30.116463
1.458593587822151E18,-0.54693604,3.5343475,8.794998,0.30682373,-0.3685913,0.24197388,-1.3568878,-29.204178,-30.03273
1.4585935878422925E18,-0.39595032,3.1924744,7.797989,-0.011474609,-0.75097656,0.098846436,-1.3568878,-28.947449,-29.948997
1.458593587862434E18,0.025756836,2.2078094,8.855637,-0.53912354,-0.7061157,0.05505371,-1.6153336,-28.77636,-29.6978
1.4585935878825756E18,0.19554138,1.6139526,11.063492,-0.74420166,-0.36538696,0.078552246,-1.8737793,-28.519821,-29.781532
1.4585935879027172E18,0.48220825,1.32164,11.546753,-0.59680176,-0.13574219,0.121276855,-2.3044586,-28.263283,-29.530334
1.4585935879228588E18,0.8229675,1.5412903,10.44574,-0.28063965,-0.015045166,0.09350586,-2.1320343,-28.092194,-29.446602
1.4585935879430003E18,0.40548706,1.9547577,8.205994,-0.06594849,0.16226196,0.039031982,-2.2180557,-27.835464,-29.530334
1.4585935879631421E18,-0.1625824,2.183319,6.526306,-0.011474609,0.18896484,0.07321167,-2.2180557,-27.493286,-29.6978
1.4585935879832837E18,-0.38401794,2.416977,5.6304626,0.02911377,0.13342285,0.16079712,-2.304268,-26.980019,-29.613876
1.4585935880034253E18,-0.30168152,2.7931519,5.490692,0.08572388,0.10992432,0.2569275,-2.8209686,-26.80893,-29.781532
1.4585935880235668E18,-0.3265381,3.3094635,5.508087,0.15515137,0.007385254,0.29431152,-2.9071808,-26.63784,-29.865265
1.4585935880437084E18,-0.3265381,3.9430695,6.132614,0.2341919,-0.15924072,0.33810425,-3.251648,-26.295662,-29.278755
1.45859358806385E18,0.21299744,4.4901733,6.77713,0.25875854,-0.16778564,0.35305786,-3.4238815,-26.295662,-29.194832
1.4585935880839916E18,0.7657776,4.572113,7.356949,0.30148315,-0.21691895,0.29644775,-4.026985,-26.210213,-29.027176
1.458593588104133E18,1.137207,4.5210724,7.9094086,0.24914551,-0.22653198,0.21740723,-4.1131973,-26.466942,-28.85971
1.458593588124275E18,1.1728058,4.548279,8.542664,0.17758179,-0.10583496,0.100982666,-4.4576645,-26.295853,-28.608322
1.4585935881444165E18,0.90263367,4.392517,8.755341,0.07611084,-0.02999878,0.04437256,-4.8021317,-26.295853,-28.52459
1.458593588164558E18,0.8229675,4.5511017,8.77449,-0.08303833,-0.0075683594,-0.007965088,-4.8021317,-26.039314,-28.189468
1.4585935881846996E18,0.7034607,4.7217407,8.785553,-0.4109497,-0.05670166,-0.113708496,-5.146599,-25.868225,-28.189468
1.4585935882048412E18,0.6990967,4.164856,9.82283,-0.7185669,-0.14001465,-0.1767273,-5.232811,-26.039314,-28.189468
1.4585935882249828E18,0.5036621,3.5631561,11.782349,-0.8381958,-0.09194946,-0.068847656,-5.4912567,-25.697136,-28.105736
1.4585935882451244E18,1.1131439,3.7052765,12.725281,-0.5861206,0.11206055,0.13195801,-5.3188324,-25.526047,-28.18966
1.4585935882652662E18,2.4379425,3.817627,11.275772,-0.4237671,0.003112793,5.79834E-4,-5.577278,-25.01278,-27.93827
1.4585935882854077E18,2.956131,3.277069,10.778229,-0.45687866,-0.078063965,-0.1703186,-5.6634903,-24.92733,-27.93827
1.4585935883055493E18,2.0175629,3.0144806,11.36087,-0.28811646,0.1302185,-0.29101563,-5.577469,-24.585152,-27.93827
1.458593588325691E18,0.9473114,2.9309387,10.296997,0.034454346,0.08001709,-0.2749939,-5.749893,-24.6706,-27.854347
1.4585935883458324E18,0.89959717,3.2757874,8.252441,0.024841309,-0.2553711,-0.32733154,-5.663872,-24.75605,-27.519226
1.458593588365974E18,1.0467682,3.5065613,6.8430786,-0.21762085,-0.35256958,-0.41384888,-5.5776596,-24.499321,-27.686882
1.4585935883861156E18,1.3840332,2.9478607,6.2144165,-0.86383057,-0.23828125,-0.51638794,-5.319214,-24.413681,-27.770615
1.4585935884062572E18,1.5297546,1.8712921,8.043594,-1.3370056,0.029815674,-0.5772705,-5.491638,-23.985863,-27.602959
1.458593588426399E18,0.7736664,1.0845184,10.232056,-1.2237854,0.40579224,-0.48114014,-5.405426,-23.729134,-27.854347
1.4585935884465405E18,0.18412781,1.0342712,10.311722,-0.6993408,0.44638062,-0.331604,-5.2330017,-23.472404,-27.93827
1.458593588466682E18,0.4506836,1.3351746,8.721497,-0.30734253,0.25091553,-0.2749939,-5.2330017,-23.044777,-28.18966
1.4585935884868237E18,0.2669525,1.7960663,7.7636414,-0.081970215,0.14196777,-0.2952881,-5.0605774,-22.61715,-28.273582
1.4585935885069652E18,-0.71772766,2.0995483,8.1618805,0.15621948,0.11099243,-0.16497803,-4.8021317,-22.189522,-28.608704
1.4585935885271068E18,-1.6016846,2.3993988,9.829544,0.63687134,-0.25003052,0.0016479492,-4.7159195,-22.018433,-28.692436
1.4585935885472484E18,-0.61476135,1.8718109,9.096039,1.2221985,-0.50531006,0.2846985,-4.888153,-21.932983,-28.357315
1.45859358856739E18,1.001297,2.60112,6.6944733,0.9145813,-0.3055725,0.3348999,-4.7157288,-22.189713,-28.105927
1.4585935885875318E18,0.91874695,3.2853546,7.787857,0.34420776,0.10992432,0.40325928,-4.801941,-22.53189,-27.854538
1.4585935886076733E18,0.72717285,3.8040009,9.579147,0.30682373,0.22528076,0.4887085,-4.888153,-22.87407,-27.35176
1.458593588627815E18,1.271637,4.2976074,9.492859,0.32391357,0.34918213,0.59552,-4.9741745,-23.472786,-27.01664
1.4585935886479565E18,1.4415588,4.7373505,9.280701,0.2138977,0.28616333,0.60406494,-5.146599,-23.900414,-26.765251
1.458593588668098E18,1.6091919,4.8250885,9.692322,0.08465576,0.08001709,0.5794983,-5.6632996,-24.242592,-26.178741
1.4585935886882396E18,2.2789917,4.885086,10.575378,0.017364502,-0.046020508,0.4534607,-6.0079575,-24.413681,-25.84362
1.4585935887083812E18,2.5352936,4.518997,11.037247,-0.005065918,-0.102630615,0.21313477,-6.0941696,-24.58477,-25.676155
1.458593588728523E18,1.3899536,4.5169525,11.158371,-0.16635132,-0.09942627,0.20245361,-6.180382,-24.49913,-25.676155
1.4585935887486646E18,1.4136047,3.6834106,12.013443,-0.15994263,-0.16351318,0.13195801,-6.3526154,-24.49913,-25.424767
1.4585935887688061E18,1.1954956,2.7394562,11.733414,-0.06915283,-0.3824768,0.121276855,-6.611061,-24.413681,-25.173378
1.4585935887889477E18,0.9792175,2.4328156,11.722488,-0.012542725,-0.38461304,0.119140625,-6.611061,-24.413681,-24.754333
1.4585935888090893E18,0.9796448,2.404892,11.183701,0.20321655,-0.20196533,0.094573975,-6.611061,-24.328232,-24.251556
1.4585935888292308E18,0.93211365,2.980835,9.4223175,0.22671509,-0.14962769,0.016601563,-6.4388275,-24.328232,-24.0839
1.4585935888493724E18,0.92375183,2.6902008,8.495468,-0.15673828,-0.06097412,-0.18740845,-6.524849,-24.328232,-23.832512
1.458593588869514E18,0.14141846,2.6728058,7.9800873,-0.3885193,0.016998291,-0.23440552,-6.438637,-24.071503,-23.664856
1.4585935888896558E18,0.75172424,1.5244751,8.36969,-0.2913208,-0.05883789,-0.45230103,-6.524849,-24.157143,-23.329735
1.4585935889097974E18,0.65541077,1.2250977,7.0378265,-0.1439209,0.08642578,-0.44161987,-6.3526154,-24.242783,-23.078346
1.458593588929939E18,0.5720978,1.8181,4.550705,-0.2571411,0.42929077,-0.37860107,-6.180382,-24.071693,-23.078346
1.4585935889500805E18,0.7080078,1.9217682,3.373642,-0.48464966,0.31500244,-0.4362793,-6.0943604,-23.986244,-22.910881
1.458593588970222E18,0.5058136,1.2343903,4.863861,-0.48464966,-0.19342041,-0.42559814,-6.0943604,-23.815155,-23.078537
1.4585935889903636E18,0.0010986328,1.192276,6.548218,-0.2902527,-0.25109863,-0.19274902,-5.749893,-23.729515,-23.329926
1.4585935890105052E18,-0.5113983,1.6493988,7.698532,-0.15246582,-0.13574219,0.041168213,-5.5776596,-23.729515,-23.413849
1.4585935890306468E18,0.118896484,2.111908,8.592499,0.023773193,-0.14428711,0.29003906,-5.5776596,-23.815155,-23.581505
1.4585935890507886E18,0.8493042,2.6106873,9.6584015,0.21069336,-0.16992188,0.35839844,-5.663681,-23.558426,-23.832893
1.4585935890709302E18,1.5267181,2.9512787,9.926392,0.30255127,-0.21585083,0.2782898,-5.7497025,-23.387337,-23.832893
1.4585935890910717E18,1.7311707,3.160843,10.529892,0.42752075,-0.4871521,0.10845947,-5.7497025,-23.387337,-23.916626
1.4585935891112133E18,2.0125732,3.2374725,10.601425,0.4584961,-0.5854187,-0.04321289,-5.835724,-23.387337,-23.832703
1.458593589131355E18,2.3784943,2.8774414,9.970551,0.18292236,-0.27246094,-0.105163574,-5.9217453,-23.301697,-23.581314
1.4585935891514964E18,2.4684906,2.5743103,9.98381,-0.40454102,0.0063171387,-0.17993164,-6.3524246,-23.301697,-23.246193
1.458593589171638E18,2.1019745,1.800827,12.136032,-0.7057495,0.29577637,-0.19168091,-6.524658,-23.130608,-23.16227
1.4585935891917798E18,1.8517914,1.7627411,14.338135,-0.256073,0.41433716,-0.09341431,-6.3524246,-22.959518,-23.078346
1.4585935892119214E18,2.601532,2.2566376,12.5686035,0.41149902,0.121673584,-0.14361572,-6.0079575,-23.130608,-22.91069
1.458593589232063E18,3.3937225,2.566925,9.742233,0.52471924,-0.07913208,-0.37005615,-6.0079575,-22.873878,-22.659302
1.4585935892522045E18,3.1336212,2.2087555,8.621231,0.1647644,-0.106903076,-0.58047485,-6.093979,-22.873878,-22.407913
1.458593589272346E18,2.100998,1.8355408,9.247772,-0.055267334,-0.21051025,-0.6199951,-6.0079575,-22.61715,-22.407913
1.4585935892924877E18,1.4648895,1.9058228,8.808777,-0.19625854,-0.4721985,-0.57406616,-6.0079575,-22.61715,-22.240257
1.4585935893126292E18,2.5262299,1.6523743,7.397278,-0.62991333,-0.5982361,-0.6595154,-5.7495117,-22.44606,-21.988869
1.4585935893327708E18,2.6580048,0.7810669,7.3685455,-1.4309998,0.008453369,-0.8645935,-5.3188324,-22.44606,-21.821404
1.458593589357948E18,-0.21890259,-0.68562317,9.852936,-1.6040344,0.7945862,-0.5997009,-5.2326202,-22.189331,-21.570015
1.4585935893730542E18,-1.4056396,-0.42726135,9.701523,-1.4277954,0.89819336,-0.28033447,-5.3186417,-21.761703,-21.570015
1.4585935893931958E18,-0.6449585,0.40618896,9.066788,-0.9578247,0.8928528,0.14797974,-4.8879623,-21.590614,-22.072792
1.4585935894133373E18,0.5032501,1.388092,7.9791107,-0.5946655,0.75079346,0.15011597,-4.6295166,-21.077156,-22.491837
1.458593589433479E18,0.43563843,1.9580078,7.2035217,-0.31695557,0.4741516,0.018737793,-4.5433044,-20.649338,-22.659492
1.4585935894536205E18,0.18040466,2.3981628,7.8394165,0.0664978,0.21139526,-0.04107666,-4.112625,-19.964981,-23.329735
1.458593589473762E18,-0.053756714,2.688263,7.8074646,0.45635986,-0.027862549,-0.022918701,-4.026413,-19.451714,-23.74878
1.458593589493904E18,-0.19363403,3.0063782,7.099945,0.44781494,-0.027862549,0.040100098,-3.8541794,-19.109535,-24.0839
1.4585935895140454E18,0.013412476,3.4121094,7.42807,0.25128174,0.19644165,0.08175659,-3.6819458,-19.023895,-24.67041
1.458593589534187E18,0.03805542,3.5248413,8.105759,0.20535278,0.2690735,0.092437744,-3.768158,-18.852615,-24.921799
1.4585935895543286E18,-0.050048828,3.8940277,8.451401,0.26837158,0.17401123,0.12554932,-3.768158,-18.595886,-24.921799
1.4585935895744701E18,0.006576538,3.7590332,7.972595,0.2897339,-0.084472656,0.11273193,-3.6821365,-18.595886,-24.67041
1.4585935895946117E18,0.8318939,3.1740265,7.9512787,-0.07556152,-0.32800293,0.045440674,-3.5959244,-18.595886,-24.838066
1.458593589609718E18,1.1802216,2.2844696,9.396881,-0.5594177,-0.25003052,-0.013305664,-3.6821365,-18.681335,-24.502945
1.4585935896348948E18,0.7032471,0.59747314,13.165894,-0.868103,0.047973633,0.15759277,-3.596115,-18.510246,-24.502945
1.4585935896550367E18,-0.051345825,0.63549805,16.523361,-0.40774536,0.49765015,0.57095337,-3.7683487,-18.253517,-24.419212
1.4585935896751782E18,0.7681732,1.4852295,14.084198,0.33032227,0.3182068,0.7258301,-4.1130066,-17.996979,-24.251747
1.4585935896953198E18,2.160141,1.1451721,10.762665,0.34527588,-0.3461609,0.3284912,-4.1992188,-17.91153,-24.168015
1.4585935897154614E18,0.55503845,0.56585693,11.390274,0.11669922,-0.4796753,0.03048706,-4.4576645,-17.82608,-24.168015
1.458593589735603E18,-0.97016907,-0.08370972,11.310425,0.02911377,-0.39956665,0.04650879,-4.71611,-17.740631,-24.251747
1.4585935897557445E18,-0.9328613,-0.722641,10.617844,-0.37036133,-0.23294067,0.18322754,-5.060768,-17.484093,-24.084091
1.458593589775886E18,-0.17388916,-0.7857666,10.863358,-0.49960327,-0.106903076,0.26760864,-5.1467896,-17.313004,-24.084091
1.4585935897960276E18,0.6025696,-0.6435089,10.063751,-0.3970642,-0.18167114,0.22808838,-5.4052353,-17.056274,-24.084091
1.4585935898161695E18,0.75590515,-0.124816895,7.912384,-0.3468628,-0.0075683594,0.16827393,-5.749893,-16.714096,-24.000168
1.458593589836311E18,0.2399292,-0.10876465,5.6970215,-0.6491394,0.4100647,0.2579956,-5.749893,-16.286278,-24.000168
1.4585935898564526E18,0.26748657,-0.38345337,5.4499817,-1.0315247,0.38442993,0.42034912,-5.749893,-15.944099,-23.916435
1.4585935898765942E18,0.6074524,-0.21102905,8.0325775,-0.830719,0.35665894,0.4406433,-5.922127,-15.516281,-24.000168
1.4585935898967357E18,0.014831543,0.38026428,8.383499,-0.36608887,0.348114,0.49298096,-6.266594,-14.917374,-24.251556
1.4585935899168773E18,-0.119506836,0.6551056,7.916092,-0.057403564,0.17507935,0.613678,-6.3526154,-14.660645,-24.419212
1.458593589937019E18,0.93447876,1.2842102,7.2465973,0.099609375,-0.23294067,0.6083374,-6.5250397,-14.061928,-24.6706
1.4585935899571607E18,1.421341,1.1240692,7.4403076,-0.0947876,-0.1293335,0.5527954,-6.7832947,-13.719749,-25.089455
1.4585935899773023E18,1.3703308,1.8721466,8.613937,-0.37142944,0.37161255,0.3487854,-6.9555283,-13.121033,-25.25711
1.4585935899974438E18,0.15267944,0.95217896,11.142105,-0.17489624,0.48483276,0.4534607,-7.0415497,-12.864494,-25.25711
1.4585935900175854E18,0.401474,0.6645508,11.587997,0.36557007,0.23596191,0.4118042,-7.0415497,-12.436676,-25.508308
1.458593590037727E18,1.0518799,1.0884857,10.109085,0.42645264,-0.18060303,0.28149414,-6.9555283,-12.094498,-25.508308
1.4585935900578685E18,1.7066193,0.710968,9.24028,0.15408325,-0.47006226,-0.099823,-6.611061,-11.9234085,-25.592041
1.45859359007801E18,1.1874084,0.6274719,10.095093,-0.20587158,-0.31625366,-0.17459106,-6.5250397,-11.58123,-26.010895
1.4585935900981517E18,0.40626526,0.042816162,11.751221,-0.44192505,0.30218506,-0.06991577,-6.6972733,-11.58123,-25.927162
1.4585935901182935E18,-0.18243408,0.5844574,12.904358,-0.088378906,0.42181396,0.1522522,-6.6972733,-11.410141,-25.927162
1.458593590138435E18,1.5668945,-0.13374329,11.203598,0.023773193,-0.051361084,-0.012237549,-6.6972733,-11.410141,-26.262283
1.4585935901585766E18,1.7407227,-0.4237213,11.66571,0.0056152344,-0.1015625,-0.17459106,-6.6972733,-11.324501,-26.597404
1.4585935901787182E18,0.28619385,-0.48866272,11.791763,0.14767456,-0.11010742,-0.14575195,-6.7832947,-10.982323,-26.597404
1.4585935901988598E18,0.24327087,-0.13841248,10.589279,0.14767456,-0.19021606,0.004852295,-6.869316,-10.8112335,-26.597404
1.4585935902190013E18,1.8582458,-0.5662842,9.594009,-0.09371948,-0.30023193,0.09350586,-7.0415497,-10.640144,-26.42994
1.458593590239143E18,2.7108612,-0.74583435,10.065826,-0.29345703,-0.34402466,-0.003692627,-7.127571,-10.297966,-26.346207
1.4585935902592845E18,2.098297,-0.59007263,10.635208,2.746582E-4,-0.3675232,-0.05923462,-7.041359,-10.041237,-26.597595
1.4585935902794263E18,1.4467163,-0.054016113,8.74411,0.37731934,-0.4316101,0.0016479492,-7.127571,-9.870148,-26.597595
1.458593590299568E18,1.2726593,0.282547,5.5904694,0.47131348,-0.46151733,0.049713135,-7.2135925,-9.613419,-26.513863
1.4585935903197094E18,0.9449768,0.49075317,4.7961884,0.08358765,-0.3322754,0.10632324,-7.4720383,-9.35688,-26.43013
1.458593590339851E18,0.9287567,0.88012695,6.9059143,0.0942688,-0.1923523,0.15332031,-7.4720383,-9.100342,-26.514053
1.458593590365028E18,0.9192505,1.108841,7.8388367,0.550354,-0.1645813,0.16400146,-7.8165054,-9.100342,-26.68171
1.4585935903801341E18,1.0145416,1.199997,6.8462067,0.6475525,-0.09942627,0.17254639,-8.247185,-8.929253,-26.933098
1.4585935904002757E18,1.089508,1.3441162,6.5329742,0.54714966,-0.16030884,0.13302612,-8.419418,-9.014893,-26.68171
1.4585935904204175E18,0.80171204,1.9309387,7.302643,0.2982788,-0.04815674,0.24197388,-8.7638855,-8.843803,-26.765442
1.458593590440559E18,1.0141449,1.6821136,9.352386,0.19039917,0.076812744,0.22702026,-8.849907,-8.843803,-26.597786
1.4585935904607007E18,0.6828766,2.1567993,11.204025,0.40081787,0.18682861,0.5036621,-8.849907,-8.929443,-26.681519
1.4585935904808422E18,1.1469269,2.3509064,10.820999,0.5439453,0.20605469,0.5090027,-9.0221405,-8.929443,-26.513863
1.4585935905009838E18,1.4866638,2.6346436,9.827026,0.53219604,-0.024658203,0.52716064,-9.45282,-9.357071,-26.346207
1.4585935905211254E18,1.9540405,2.3627167,9.223465,0.3399353,-0.100494385,0.5015259,-9.539032,-9.442711,-26.17855
1.458593590541267E18,2.4617004,1.8863525,9.042984,0.026977539,-0.047088623,0.5816345,-9.45282,-9.100533,-26.094627
1.4585935905614085E18,3.0658264,1.1346436,10.924683,-0.19839478,0.06826782,0.6094055,-9.539032,-8.843803,-26.17836
1.4585935905815503E18,3.1183167,1.9864807,13.328476,0.16583252,-0.006500244,0.54959106,-9.539032,-8.672714,-26.094627
1.458593590601692E18,3.7314606,1.2250519,11.064911,0.23953247,-0.45510864,0.35198975,-9.711456,-8.330536,-26.262283
1.4585935906218335E18,3.4171906,0.6595459,11.923065,-0.014678955,-0.3183899,0.09136963,-9.969902,-8.244896,-26.262283
1.458593590641975E18,2.0433044,0.44584656,11.937851,0.040863037,-0.34188843,-0.09875488,-10.228348,-8.073807,-26.513672
1.4585935906621166E18,1.3864746,-0.35606384,9.866379,-0.33831787,-0.4882202,-0.24081421,-10.4867935,-7.7316284,-26.597404
1.4585935906822582E18,1.2908325,-0.82125854,10.383499,-0.7762451,-0.36645508,-0.29208374,-10.745239,-7.218361,-26.848793
1.4585935907023997E18,1.0787659,-1.0599213,11.194931,-0.7805176,-0.13040161,-0.32839966,-10.917473,-7.38945,-26.848793
1.4585935907225416E18,0.9521179,-0.9063263,10.171371,-0.5487366,-0.1506958,-0.2675171,-11.26194,-7.304001,-27.100182
1.4585935907426831E18,1.447876,-0.31959534,8.27182,-0.37890625,-0.1506958,-0.24188232,-11.520386,-7.2185516,-27.183914
1.4585935907628247E18,1.9969177,-0.19718933,5.9019165,-0.55407715,0.17294312,-0.30596924,-11.606407,-7.1331024,-27.016258
1.4585935907829663E18,1.7442017,-0.2267456,6.7058563,-0.8360596,0.51260376,-0.35403442,-11.520386,-6.9620132,-27.183914
1.4585935908031078E18,0.8465576,-0.2444458,9.130936,-0.46969604,0.5286255,-0.2952881,-11.520386,-6.8763733,-27.100182
1.4585935908232494E18,0.26652527,0.27209473,9.269287,0.14981079,0.44424438,-0.064575195,-11.434174,-6.705284,-27.267838
1.458593590843391E18,0.3947296,1.0932922,7.83342,0.44995117,0.42608643,0.13943481,-11.089516,-6.705284,-27.435493
1.4585935908635325E18,1.2229767,1.7475891,7.2170715,0.45315552,0.47628784,0.16506958,-10.83107,-6.4487457,-27.686882
1.4585935908836744E18,1.6854248,2.1215668,7.5393066,0.4179077,0.46774292,0.067871094,-10.314369,-6.363106,-27.770615
1.458593590903816E18,1.5451965,2.0202484,8.635391,0.494812,0.23062134,-0.12011719,-10.142136,-6.619644,-27.93827
1.4585935909239575E18,0.84480286,1.7904205,9.757858,0.62298584,-0.012908936,-0.19915771,-9.711456,-6.619644,-28.022194
1.458593590944099E18,0.70458984,1.5819702,9.766281,0.6208496,0.050109863,-0.16390991,-9.453011,-6.8763733,-27.93827
1.4585935909642406E18,0.8182068,1.6492615,8.912323,0.43392944,0.13342285,-0.15429688,-9.194565,-7.1331024,-28.18966
1.4585935909843822E18,1.3582916,1.6448975,7.781784,-0.13323975,0.046905518,-0.29849243,-9.108543,-7.5609207,-28.357315
1.4585935910045238E18,1.6068878,1.229126,8.379929,-0.5839844,0.046905518,-0.44802856,-9.108543,-7.817459,-28.273392
1.4585935910246653E18,0.94299316,0.49952698,10.906647,-0.82858276,0.11740112,-0.526001,-9.022522,-8.159637,-28.357315
1.4585935910448072E18,-0.072891235,0.4403534,12.731842,-0.5871887,0.014862061,-0.39141846,-9.022522,-8.501816,-28.524971
1.4585935910649487E18,0.6429596,0.114212036,11.8910675,-0.47930908,-0.07058716,-0.21411133,-8.764076,-8.501816,-28.441048
1.4585935910850903E18,1.9760132,-0.48236084,11.624191,-0.71643066,0.18469238,-0.22265625,-8.764076,-8.672905,-28.943634
1.458593591105232E18,1.5154877,-0.83291626,13.549561,-0.6758423,0.43997192,-0.24188232,-8.764076,-8.587265,-29.362679
1.4585935911253734E18,0.91374207,-0.6849823,13.607819,-0.13430786,0.13342285,-0.2055664,-8.5056305,-8.501625,-29.6978
1.458593591145515E18,1.5980225,-0.189682,11.231903,0.12310791,-0.22225952,-0.18847656,-8.333206,-8.244896,-29.948997
1.4585935911656566E18,2.7538147,-0.15997314,9.227753,-0.11294556,-0.17098999,-0.29208374,-8.074951,-8.330536,-30.368042
1.4585935911857984E18,2.9936981,-0.1171875,8.822205,-0.41949463,0.016998291,-0.47045898,-7.988739,-8.330536,-30.703163
1.45859359120594E18,2.2792816,0.21029663,9.253616,-0.3190918,0.10244751,-0.53240967,-7.988739,-8.159447,-30.870628
1.4585935912260815E18,1.5255737,0.59243774,8.092682,-0.05419922,0.09069824,-0.53240967,-7.9027176,-8.245087,-31.122017
1.458593591246223E18,1.0588074,0.9516754,6.5218506,-0.029632568,0.13128662,-0.49075317,-7.816696,-8.501625,-31.20594
1.4585935912663647E18,0.6233368,1.2530212,6.8457336,0.054748535,0.11526489,-0.442688,-7.6444626,-8.587265,-31.122017
1.4585935912865062E18,0.6841278,1.3552246,6.7676086,0.21282959,-0.008636475,-0.4437561,-7.472229,-8.843994,-30.954361
1.4585935913066478E18,0.45259094,1.3939972,7.218292,0.33779907,-0.08981323,-0.4298706,-7.213974,-9.100723,-31.038284
1.4585935913267894E18,0.117248535,1.5866852,8.215759,0.6422119,-0.26071167,-0.35510254,-7.127762,-9.1861725,-30.954361
1.4585935913469312E18,0.26202393,1.7668762,7.971344,0.7885437,-0.37820435,-0.24188232,-6.7832947,-9.357262,-30.870438
1.4585935913670728E18,0.6294403,1.9611359,7.9640656,0.5621033,-0.1506958,-0.13613892,-6.524849,-9.870529,-30.870438
1.4585935913872143E18,0.9114227,2.2804413,10.047943,0.44995117,0.013793945,-0.07418823,-6.3526154,-10.298157,-30.870438
1.458593591407356E18,0.80963135,2.3443756,11.008667,0.5631714,0.11206055,-0.084869385,-6.3526154,-10.725975,-30.786514
1.4585935914274975E18,0.20820618,2.1553955,11.115952,0.63153076,-0.012908936,-0.033599854,-6.0941696,-10.897064,-30.870438
1.458593591447639E18,-0.01473999,1.9538574,11.019348,0.5343323,0.044769287,0.08709717,-6.008148,-11.239243,-30.870438
1.4585935914677806E18,0.030456543,1.656189,11.270233,0.39761353,0.13769531,0.21740723,-6.008148,-11.75251,-30.702782
1.4585935914879222E18,0.23930359,1.1639099,11.689682,0.29507446,0.14837646,0.32208252,-5.922127,-12.180328,-30.61905
1.458593591508064E18,-0.2668457,1.6232605,12.239929,0.2833252,0.21139526,0.4887085,-6.1805725,-12.693596,-30.61905
1.4585935915282056E18,0.8061981,1.3207397,11.225571,0.2341919,0.0063171387,0.5730896,-6.008339,-12.950325,-30.870438
1.4585935915483471E18,1.3872223,0.66682434,11.817841,0.09320068,0.078948975,0.45773315,-6.0943604,-13.207054,-30.95417
1.4585935915684887E18,-0.02166748,0.77937317,12.710297,0.4168396,-0.12719727,0.4256897,-5.577469,-13.378143,-30.95417
1.4585935915886303E18,-0.39538574,1.458725,9.379318,0.43286133,-0.47006226,0.3274231,-5.577469,-13.720322,-30.870247
1.4585935916087718E18,-0.3413849,0.89212036,7.5545654,-0.19198608,-0.6697998,0.22808838,-5.577469,-13.891411,-31.037903
1.4585935916289134E18,-0.047561646,0.112854004,9.161865,-0.8050842,-0.25964355,0.26333618,-5.577469,-13.891411,-31.289291
1.4585935916490552E18,-0.19584656,-0.38523865,10.669388,-0.7036133,0.07040405,0.36694336,-5.4050446,-13.634682,-31.708336
1.4585935916691968E18,0.4123993,-0.26789856,9.528412,-0.26889038,-0.051361084,0.47055054,-5.3188324,-13.549042,-31.875992
1.4585935916893384E18,1.731308,0.2680664,7.0111084,0.039794922,-0.15924072,0.37228394,-5.4050446,-13.292313,-31.708527
1.45859359170948E18,2.1219788,0.47727966,5.126938,-0.11508179,-0.035339355,0.2718811,-5.319023,-13.121223,-31.959915
1.4585935917296215E18,1.3624878,0.8836365,5.9412537,-0.21868896,0.14837646,0.24517822,-5.577469,-13.0355835,-32.211304
1.458593591749763E18,0.52638245,1.3391418,7.479294,0.09854126,0.10458374,0.35946655,-5.663681,-12.778854,-32.462692
1.4585935917699046E18,0.63716125,2.066269,7.325165,0.43606567,-0.06738281,0.42034912,-5.577469,-12.522125,-32.630157
1.4585935917900462E18,0.85310364,2.7365265,7.3964386,0.5791931,-0.13360596,0.4053955,-5.4912567,-12.351036,-32.797813
1.458593591810188E18,0.7941437,3.0938416,7.806488,0.6496887,-0.29916382,0.33810425,-5.7497025,-12.522125,-32.546425
1.4585935918303296E18,1.0572815,3.060608,8.389511,0.6422119,-0.4946289,0.2718811,-5.7497025,-12.693214,-32.71408
1.4585935918504712E18,1.3402405,2.7201996,9.357422,0.51083374,-0.40063477,0.22381592,-6.0941696,-12.949944,-32.881546
1.4585935918706127E18,1.6916809,2.4387665,10.205429,0.48947144,-0.32479858,0.16293335,-6.0941696,-13.121033,-32.96547
1.4585935918907543E18,2.254547,2.0659332,9.61174,0.38052368,-0.3899536,0.074279785,-6.438637,-12.949944,-32.881737
1.458593591910896E18,2.5703583,1.6887512,9.492279,-0.063812256,-0.29489136,-0.09341431,-6.3524246,-13.206673,-33.049393
1.4585935919310374E18,2.618332,1.1150513,10.47261,-0.43444824,-0.07165527,-0.1842041,-6.696892,-13.206673,-32.96566
1.4585935919511793E18,2.9582825,0.75624084,11.953888,-0.55407715,0.25839233,-0.27392578,-6.8691254,-13.206673,-32.71427
1.4585935919713208E18,4.360977,1.189743,12.118729,-0.36608887,0.2915039,-0.63601685,-6.9553375,-13.121223,-32.96566
1.4585935919914624E18,3.7633362,0.8029785,11.124863,-0.21014404,0.038360596,-0.95751953,-6.783104,-13.035774,-32.798004
1.458593592011604E18,3.0625153,-0.0059509277,10.02446,-0.44406128,-0.05029297,-1.1305542,-6.696892,-12.950134,-32.881927
1.4585935920317455E18,1.7919464,-0.049942017,10.939911,-0.59680176,0.3331604,-0.98742676,-6.696892,-12.522316,-32.881927
1.458593592051887E18,1.693161,-0.023345947,10.628372,-0.49746704,0.2423706,-0.82507324,-6.524658,-12.436867,-33.133316
1.4585935920720287E18,2.2348633,-0.1103363,9.627274,-0.53378296,-0.07699585,-0.75671387,-6.6108704,-12.351227,-33.384705
1.4585935920921702E18,2.5187683,-0.30680847,8.739777,-0.6961365,-0.005432129,-0.70651245,-6.266403,-12.265778,-33.80375
1.458593592112312E18,1.8104401,-0.1931305,8.450897,-0.9642334,0.42822266,-0.646698,-5.921936,-12.180138,-34.055138
1.4585935921324536E18,0.113357544,0.48728943,9.06456,-0.83392334,0.61087036,-0.5922241,-5.577278,-11.9234085,-34.222603
1.4585935921525952E18,-1.008728,0.9806671,9.230423,-0.4942627,0.5168762,-0.4640503,-5.491066,-11.410141,-34.892845
1.4585935921727368E18,-1.2980957,1.3170776,8.584549,-0.19198608,0.57562256,-0.28033447,-4.974365,-11.153603,-35.06031
1.4585935921928783E18,-1.187973,1.6937103,8.015564,-0.029632568,0.8437195,-0.11798096,-4.7159195,-11.068153,-35.39543
1.45859359221302E18,-0.70332336,1.8133545,8.39772,0.3260498,0.7176819,-0.004760742,-4.4574738,-10.811424,-35.563087
1.4585935922331615E18,-0.1842041,1.9246674,7.9761353,0.8013611,0.40579224,0.0027160645,-4.0267944,-10.897064,-35.479355
1.458593592253303E18,-0.26013184,2.2438202,6.4026337,0.80670166,0.24771118,0.045440674,-3.596115,-10.811424,-35.563087
1.4585935922734449E18,-0.07296753,2.1910858,6.474411,0.51937866,0.3267517,0.17681885,-3.1654358,-10.725975,-35.89821
1.4585935922935864E18,0.7286072,2.21698,7.689026,0.37945557,0.43997192,0.26654053,-2.9071808,-10.811615,-35.982132
1.458593592313728E18,1.1043701,2.4814758,8.519714,0.263031,0.46453857,0.159729,-2.39048,-11.3248825,-35.8984
1.458593592328834E18,0.5861511,2.3929443,9.18837,0.16156006,0.28936768,0.05291748,-2.2182465,-11.581421,-35.814667
1.4585935923590467E18,1.3977051,2.3274536,10.335907,-0.06488037,0.21246338,-0.23013306,-1.9598007,-11.66687,-35.730934
1.4585935923741527E18,0.9450836,2.2358398,11.214188,-0.11508179,0.062927246,-0.35510254,-1.5291214,-12.094688,-35.730934
1.4585935923942943E18,-0.44187927,1.3642578,11.418335,-0.37890625,0.13342285,-0.07525635,-1.2706757,-12.009048,-35.8984
1.458593592414436E18,-1.499115,1.0016785,11.826675,-0.6277771,0.4794922,0.3477173,-1.2706757,-11.837959,-35.814667
1.4585935924345777E18,-0.7970886,1.7916718,12.940521,-0.5722351,0.56707764,0.61901855,-1.0984421,-11.837959,-35.8984
1.4585935924547192E18,-0.24990845,1.3825684,12.533447,-0.4664917,0.03729248,0.502594,-0.83999634,-11.66687,-35.982132
1.4585935924748608E18,-0.44302368,-0.03553772,14.175613,-0.17703247,-0.37820435,0.42034912,-1.0122299,-11.239052,-35.982132
1.4585935924950024E18,-1.3349609,-0.56285095,13.656601,0.37197876,-0.46044922,0.50579834,-0.8398056,-10.896873,-36.317253
1.458593592515144E18,-0.74832153,-0.40620422,9.183105,0.3527527,-0.54803467,0.48657227,-0.92601776,-10.811424,-36.400986
1.4585935925352855E18,-0.25923157,-0.11627197,7.4152985,-0.25927734,-0.5021057,0.31033325,-1.1844635,-10.212517,-36.48472
1.458593592555427E18,0.39175415,-0.74134827,8.417435,-0.5572815,-0.551239,0.159729,-1.3566971,-9.699249,-36.652374
1.458593592575569E18,0.80648804,-1.1906586,8.169617,-0.8157654,-0.36538696,0.0262146,-1.5289307,-9.271622,-36.81984
1.4585935925957105E18,0.68006897,-1.3881378,9.460663,-0.82003784,-0.11758423,0.04437256,-1.7011642,-8.758354,-36.987495
1.458593592615852E18,0.05455017,-0.88804626,9.617706,-0.33511353,0.030883789,0.21206665,-1.95961,-8.159447,-37.40635
1.4585935926359936E18,0.6535187,0.0068969727,7.4828186,-0.04031372,0.20925903,0.42141724,-2.2180557,-7.646179,-37.49008
1.4585935926561352E18,1.2767639,0.96720886,6.204895,-7.9345703E-4,0.21566772,0.43637085,-2.39048,-7.2185516,-37.657738
1.4585935926762767E18,1.0969543,1.4307861,6.7187805,0.21176147,0.03942871,0.40966797,-2.648735,-6.7907333,-37.825203
1.4585935926964183E18,0.3440094,2.0049438,7.3184814,0.4510193,-0.11117554,0.3979187,-2.7349472,-6.705284,-37.825203
1.45859359271656E18,0.22135925,1.8657532,7.211212,0.47879028,-0.001159668,0.43423462,-2.8211594,-6.4487457,-37.825203
1.4585935927367017E18,0.55770874,2.1545105,8.389267,0.48840332,0.29257202,0.4053955,-2.4766922,-6.4487457,-37.99286
1.4585935927568433E18,0.08288574,2.480194,9.308868,0.6678467,0.121673584,0.20672607,-2.4766922,-6.534195,-37.74147
1.4585935927769848E18,-0.6358948,2.3260345,9.570984,0.7938843,-0.098358154,0.08816528,-2.304268,-6.790924,-37.49008
1.4585935927971264E18,-1.1251984,2.0556335,9.457916,0.7468872,-0.03640747,0.07107544,-2.2180557,-7.2187424,-37.322617
1.458593592817268E18,-0.72210693,2.0213928,8.025406,0.27371216,0.21780396,0.16720581,-2.2180557,-7.475281,-37.238693
1.4585935928374095E18,0.74424744,1.8779144,8.389267,-0.26461792,0.19644165,-0.003692627,-1.9598007,-7.817459,-37.15496
1.458593592857551E18,1.0021057,1.1347198,10.160629,-0.6352539,0.1505127,-0.23547363,-1.6151428,-7.817459,-37.49008
1.458593592877693E18,0.17054749,0.18084717,12.684509,-0.5487366,0.1505127,-0.18099976,-1.2704849,-7.9029083,-37.49008
1.4585935928978345E18,0.39515686,-0.012374878,13.780594,-0.16848755,0.30325317,0.08389282,-1.3565063,-8.245087,-37.40616
1.458593592917976E18,2.4144287,1.0375366,12.707748,0.3687744,0.3609314,0.04650879,-1.0980606,-8.159637,-37.48989
1.4585935929381176E18,2.9752655,1.5018463,10.535278,0.5621033,-0.24789429,-0.37005615,-1.0980606,-8.330727,-37.071037
1.4585935929582592E18,1.3728485,0.97468567,10.213181,0.35595703,-0.551239,-0.6050415,-0.6673813,-8.0739975,-37.238503
1.4585935929784008E18,0.69270325,-0.50997925,9.989883,-0.14285278,-0.24468994,-0.4159851,-0.3227234,-7.9885483,-36.90338
1.4585935929985423E18,2.3059082,-1.6612396,11.125885,-0.50601196,0.08428955,-0.2675171,-0.06427765,-7.817459,-37.071037
1.458593593018684E18,2.3044128,-1.2514038,12.887711,-0.33618164,-0.16244507,-0.40316772,0.021743774,-7.9885483,-36.81965
1.4585935930388257E18,1.4298706,-0.06535339,11.531845,-0.053131104,-0.1720581,-0.5067749,-0.064468384,-8.159637,-36.484528
1.4585935930589673E18,0.17584229,0.8910217,8.84996,-0.24005127,0.05117798,-0.48861694,0.1077652,-8.0739975,-36.400795
1.4585935930791089E18,-0.116256714,1.3866882,8.33432,-0.42910767,0.40792847,-0.32092285,0.1077652,-8.330536,-36.317062
1.4585935930992504E18,0.18449402,1.7034607,8.305786,-0.3885193,0.61087036,-0.21411133,0.5382538,-8.244896,-36.735916
1.458593593119392E18,0.6369324,1.838913,8.009338,-0.053131104,0.71661377,-0.15536499,0.71048737,-8.330536,-36.903572
1.4585935931344983E18,0.85173035,1.9107666,7.515106,0.3751831,0.607666,-0.2258606,0.88272095,-8.415985,-37.15496
1.4585935931596751E18,0.45637512,1.6623383,5.84964,0.6742554,0.41860962,-0.25042725,1.3996124,-8.758163,-37.071037
1.458593593179817E18,-0.07255554,1.9306793,4.713867,0.64328,0.1579895,-0.2119751,1.8302917,-8.929253,-37.238693
1.4585935931999585E18,-0.5512085,2.1065216,5.3044586,0.4595642,0.09069824,-0.09341431,2.260971,-9.014893,-37.573814
1.4585935932201E18,-0.3575287,2.2530518,7.23526,0.37091064,0.103515625,5.79834E-4,2.6054382,-9.185982,-37.74147
1.4585935932402417E18,-0.30828857,2.2795563,8.307373,0.49588013,0.1932373,0.067871094,2.7776718,-9.442711,-37.825203
1.4585935932603832E18,-0.28019714,2.345047,8.139175,0.49160767,0.13235474,0.16186523,2.9500961,-9.870529,-37.825203
1.4585935932855603E18,-0.44688416,2.4417877,8.785873,0.25769043,-0.20303345,0.117004395,3.0361176,-10.640335,-37.74147
1.4585935933006664E18,-0.8898926,2.7585144,9.75061,0.19039917,-0.31411743,0.04864502,3.2083511,-10.897064,-37.99286
1.458593593320808E18,-0.99002075,2.020401,10.047012,-0.04031372,-0.049224854,0.10525513,3.122139,-11.068153,-37.74166
1.458593593340929E18,-0.5920868,1.1683807,10.441711,-0.3885193,0.19750977,0.1522522,3.122139,-11.324692,-37.574005
1.4585935933610706E18,-1.755188,1.7489624,12.091583,-0.6203003,0.35559082,0.2846985,3.2943726,-11.58123,-37.49008
1.4585935933812122E18,-1.2140656,0.8186188,12.868134,-0.7901306,0.1366272,0.44277954,3.6388397,-11.66687,-37.322426
1.458593593401354E18,-0.14654541,-0.19944763,14.98027,-0.71536255,0.1857605,0.5720215,3.8110733,-11.58123,-37.322426
1.4585935934214956E18,-0.28189087,0.3995514,15.208801,0.20748901,-0.17098999,0.46200562,3.8110733,-11.410141,-37.238693
1.458593593441637E18,-0.3211975,0.76142883,10.1888275,0.32818604,-0.65270996,0.20031738,4.069519,-10.725784,-36.987305
1.4585935934617787E18,-0.8507843,0.47169495,8.420944,-0.20907593,-0.8043823,0.029418945,4.155731,-10.554695,-36.735916
1.4585935934819203E18,-1.11203,0.1280365,9.299194,-0.6352539,-0.5993042,0.053985596,4.2419434,-10.383606,-36.987114
1.4585935935020618E18,-0.6195679,-0.2711792,10.051285,-0.69400024,-0.39208984,0.11380005,4.500389,-10.127068,-37.070847
1.4585935935222034E18,-0.07807922,-0.4315796,9.560745,-0.49960327,-0.22439575,0.1308899,4.4143677,-9.870529,-36.90338
1.458593593542345E18,0.3961029,-0.29551697,7.946701,-0.18344116,-0.16137695,0.18429565,4.3283463,-9.528351,-36.987114
1.4585935935624868E18,0.5676727,-0.0634613,6.244583,-0.11828613,-0.25216675,0.21206665,4.4145584,-9.271812,-36.90338
1.4585935935826284E18,-0.044174194,0.33992004,6.849518,-0.06915283,-0.1293335,0.32208252,4.3283463,-9.100723,-37.15477
1.45859359360277E18,-0.23957825,0.8265381,7.3891907,0.21282959,-0.073791504,0.46200562,4.0699005,-8.929634,-37.238503
1.4585935936229115E18,0.06048584,1.6360321,6.705261,0.4446106,-0.098358154,0.5527954,3.7252426,-8.929634,-37.322235
1.458593593643053E18,0.53079224,2.3196564,6.3156586,0.46276855,-0.18701172,0.55599976,3.2945633,-8.758545,-37.322235
1.4585935936631946E18,1.5967712,3.07312,6.5102386,0.24914551,-0.25109863,0.3968506,3.0361176,-8.843994,-37.238503
1.4585935936833362E18,1.4199371,3.039444,8.5130005,0.13485718,-0.30130005,0.17788696,2.8636932,-9.015083,-37.405968
1.458593593703478E18,1.0592346,2.5094452,11.124588,0.3612976,-0.51812744,0.040100098,2.433014,-9.357262,-37.405968
1.4585935937236196E18,1.374527,1.8326874,10.711304,0.5834656,-0.5223999,-0.07632446,2.088356,-9.528351,-37.23831
1.4585935937437612E18,1.5050964,1.3100433,9.772079,0.32818604,-0.34829712,-0.1703186,1.7438889,-9.870529,-36.90319
1.4585935937639027E18,0.94221497,1.4563293,9.862228,-0.045654297,-0.15283203,-0.2621765,1.3994217,-10.298347,-36.819458
1.4585935937840443E18,0.4790039,0.42837524,10.860367,-0.50601196,-0.14962769,-0.26004028,1.4856339,-10.383797,-36.651993
1.4585935938041859E18,0.215271,-0.3146057,13.890961,-0.54660034,0.08215332,-0.04748535,1.5716553,-10.554886,-36.56826
1.4585935938243274E18,1.2815094,0.38246155,14.736176,0.052612305,0.35665894,0.15545654,1.2271881,-10.725975,-36.484528
1.458593593844469E18,3.0391083,0.7794037,12.459518,0.39868164,0.27548218,-0.07098389,1.2271881,-10.811424,-36.317062
1.4585935938646108E18,3.2386017,0.5709381,10.871368,0.23098755,0.34277344,-0.35830688,1.140976,-10.982513,-36.317062
1.4585935938847524E18,2.3027344,0.118896484,11.099777,0.040863037,0.17507935,-0.5292053,1.2271881,-11.067963,-36.48472
1.458593593904894E18,2.2497559,0.07147217,10.782227,-0.03604126,0.11312866,-0.5676575,1.3994217,-10.896873,-36.56845
1.4585935939250355E18,2.4915009,-0.2162323,9.510391,-0.37677002,0.2690735,-0.62854004,1.7438889,-10.725784,-36.903572
1.458593593945177E18,1.9757233,-0.10484314,10.053207,-0.5369873,0.3534546,-0.6669922,1.8299103,-10.896873,-36.987305
1.4585935939653187E18,1.558609,0.07635498,9.3897705,-0.35647583,0.33743286,-0.6819458,2.1745682,-10.811424,-37.15496
1.4585935939854602E18,1.0940094,0.36772156,7.989273,-0.24752808,0.4389038,-0.6659241,2.691269,-10.725975,-37.15496
1.458593594005602E18,0.48962402,1.0690765,7.2463684,-0.14819336,0.5371704,-0.66378784,2.8636932,-10.725975,-37.15496
1.4585935940257436E18,-0.33996582,1.6224365,7.3525696,0.19894409,0.4741516,-0.65631104,3.2083511,-10.554886,-37.15496
1.4585935940458852E18,-0.34568787,1.8796539,6.1600037,0.48413086,0.3053894,-0.6317444,3.7250519,-10.640526,-36.987305
1.4585935940660268E18,-0.3015442,2.1396027,5.5351105,0.494812,0.29684448,-0.5964966,4.2417526,-10.982704,-36.987305
1.4585935940861683E18,-0.37332153,2.0389557,5.8259125,0.47558594,0.23168945,-0.51745605,4.672432,-11.3248825,-36.735916
1.45859359410631E18,-0.19064331,2.2621765,7.0487366,0.5012207,-0.03427124,-0.46832275,5.1031113,-11.410522,-36.81965
1.4585935941264515E18,0.453125,2.1579285,7.7532806,0.47024536,-0.08874512,-0.38928223,5.3613663,-12.009239,-36.735725
1.4585935941415578E18,0.4688568,2.2901306,8.487534,0.3399353,-0.00970459,-0.3027649,5.5336,-12.436867,-36.735725
1.4585935941667348E18,0.13531494,2.6499786,9.551498,0.3046875,0.022338867,-0.21838379,5.7058334,-13.121223,-36.735725
1.4585935941868764E18,-0.44429016,2.6328583,10.14653,0.1786499,-0.09088135,-0.12866211,6.0503006,-13.976669,-36.400604
1.458593594207018E18,-0.83818054,2.616516,10.998047,0.08251953,-0.14001465,0.02407837,5.878067,-14.661026,-36.400604
1.4585935942271596E18,-0.71728516,2.7393494,11.610672,-0.014678955,-0.039611816,0.24517822,5.7920456,-15.1742935,-36.31687
1.458593594247301E18,-0.11332703,2.5094604,12.557358,-0.012542725,-0.001159668,0.33596802,5.706024,-15.516472,-35.98175
1.4585935942674427E18,-0.24473572,2.7077637,13.774307,0.24273682,0.025543213,0.39471436,5.5337906,-16.02974,-35.562897
1.4585935942875843E18,-0.37139893,2.7659607,12.13179,0.41256714,-0.14428711,0.34664917,5.447769,-16.286469,-35.144043
1.4585935943077258E18,0.075790405,1.275116,11.16655,0.15621948,-0.25216675,0.270813,5.3617477,-16.628647,-35.06031
1.4585935943278676E18,-1.1381378,0.74031067,12.580978,0.2705078,-0.21798706,0.18109131,5.447769,-16.714287,-34.80892
1.4585935943480092E18,-2.2738495,1.1656342,10.387909,0.346344,-0.49783325,0.08816528,5.2755356,-16.628647,-34.80892
1.4585935943681508E18,-1.9618835,0.9372711,8.34375,-0.10760498,-0.801178,0.016601563,5.189514,-16.457558,-34.892845
1.4585935943882924E18,-0.86820984,0.055252075,9.028931,-0.8648987,-0.5982361,-0.04321289,4.9310684,-16.200829,-34.809113
1.458593594408434E18,-0.8354492,-0.5131073,11.133408,-0.94821167,-0.23934937,-0.080596924,4.758835,-16.286278,-34.809113
1.4585935944285755E18,-0.5489197,-0.676651,9.761581,-0.5861206,-0.11651611,0.05078125,4.6728134,-16.115189,-34.72538
1.458593594448717E18,-0.048294067,-0.39065552,7.411957,-0.42590332,-0.025726318,0.2088623,4.3281555,-15.77301,-34.557724
1.458593594468859E18,0.8149109,-0.12017822,5.3698883,-0.51135254,-0.023590088,0.28363037,4.2419434,-15.345383,-34.557724
1.4585935944890004E18,0.93463135,0.14421082,6.0255127,-0.65875244,0.08428955,0.28042603,4.06971,-14.917564,-34.222603
1.458593594509142E18,0.3237915,0.30386353,8.041733,-0.31481934,0.09817505,0.34985352,3.8974762,-14.489937,-34.222603
1.4585935945292836E18,0.12339783,1.0167694,8.253906,0.3196411,-0.020385742,0.44812012,3.9834976,-14.575386,-34.054947
1.4585935945494252E18,-0.13981628,1.9589844,6.749466,0.4584961,0.015930176,0.56988525,4.2419434,-14.489937,-33.635902
1.4585935945695667E18,-0.17837524,2.7352142,6.991562,0.36984253,0.06185913,0.6371765,4.155731,-14.404488,-33.55217
1.4585935945897083E18,0.4599762,2.9406738,7.889206,0.3815918,-0.035339355,0.62008667,4.155731,-14.404488,-33.55217
1.4585935946098499E18,1.3476868,2.657196,9.084946,0.39440918,-0.22973633,0.4758911,4.3281555,-14.575577,-33.55217
1.4585935946299917E18,1.6890869,2.430725,10.596619,0.47665405,-0.31518555,0.23342896,4.242134,-14.832115,-33.216858
1.4585935946501332E18,1.3247833,2.2220764,10.15271,0.50335693,-0.21691895,0.1661377,3.897667,-15.1742935,-33.216858
1.4585935946702748E18,1.3123169,2.2516327,8.104553,0.05368042,-0.0385437,0.09777832,4.0699005,-15.516472,-32.798004
1.4585935946904164E18,1.1886292,1.9136047,7.6302795,-0.67263794,0.0105896,-0.053894043,3.7254333,-15.259933,-32.462883
1.458593594710558E18,0.5133209,0.3657837,9.974991,-1.3989563,-0.1015625,-0.15216064,3.4669876,-15.1742935,-32.211494
1.4585935947306995E18,-0.49302673,-1.0389404,15.00322,-1.3701172,-0.20410156,0.08602905,3.5531998,-15.003204,-31.876183
1.458593594750841E18,0.52879333,-0.8624115,17.080719,-0.4803772,-0.08126831,0.3071289,3.4669876,-14.746475,-31.708527
1.4585935947709827E18,2.500412,-0.28276062,13.560074,0.10922241,0.2690735,0.21099854,3.553009,-14.575386,-31.624794
1.4585935947911245E18,2.066742,0.21374512,11.589279,0.07824707,0.5029907,-0.029327393,3.7252426,-14.233208,-31.373405
1.458593594811266E18,1.2136993,0.4109497,10.327225,0.03765869,0.44744873,-0.17779541,3.811264,-13.891029,-31.289482
1.4585935948314076E18,0.79400635,0.45237732,9.279755,-0.23150635,0.3331604,-0.34014893,3.9834976,-13.377762,-31.205559
1.4585935948515492E18,0.8151245,0.4012146,8.628479,-0.51242065,0.44638062,-0.42559814,4.327965,-13.0355835,-31.205559
1.4585935948716908E18,0.8461304,0.1197052,7.863968,-0.86383057,0.5660095,-0.43948364,4.672432,-12.779045,-31.205559
1.4585935948918323E18,0.7959595,0.27575684,8.56459,-0.89801025,0.6279602,-0.44482422,4.930687,-12.265778,-31.205559
1.458593594911974E18,0.4781189,0.6845093,8.190552,-0.62350464,0.6140747,-0.36471558,5.5336,-11.923599,-31.037903
1.4585935949321157E18,0.4440918,1.0342712,6.967392,-0.41949463,0.30859375,-0.3305359,5.7920456,-11.495781,-30.702782
1.4585935949522573E18,0.06575012,1.3526154,7.276413,-0.3062744,0.047973633,-0.28353882,6.1365128,-10.982513,-30.702782
1.4585935949723988E18,-0.05378723,1.6947479,8.508087,0.072906494,0.022338867,-0.16070557,6.7396164,-10.640335,-30.535316
1.4585935949925404E18,0.29429626,1.710495,7.955887,0.5022888,0.04156494,-0.107299805,6.8258286,-10.383606,-30.367851
1.458593595012682E18,0.28652954,1.6819763,7.318466,0.6411438,0.03729248,-0.13293457,7.1704865,-10.212517,-30.367851
1.4585935950328236E18,-0.37330627,1.513977,7.448349,0.7896118,-0.11331177,-0.14147949,7.342911,-10.297966,-30.03273
1.458593595052965E18,-1.1105499,1.665741,7.26947,0.73513794,-0.3258667,-0.03894043,7.6013565,-10.554504,-29.697609
1.4585935950731067E18,-1.1833191,1.697525,8.473312,0.6753235,-0.37606812,0.159729,7.515335,-10.982323,-29.613876
1.4585935950932485E18,-0.6017456,1.7423706,8.798111,0.5012207,-0.3183899,0.25372314,7.429123,-11.410141,-29.362488
1.45859359511339E18,-0.22340393,1.370224,9.831268,0.2480774,-0.21905518,0.23556519,7.2568893,-12.094498,-28.943634
1.4585935951335316E18,-0.6131439,1.1283722,10.841141,0.22137451,-0.30877686,0.22167969,7.084465,-12.351227,-28.775978
1.4585935951536732E18,-0.8339691,0.7075348,11.112335,0.19360352,-0.606781,0.24624634,6.9120407,-12.950134,-28.692245
1.4585935951738148E18,-0.676239,-0.10977173,11.944489,0.119903564,-0.755249,0.27722168,6.653595,-13.463402,-28.189468
1.4585935951939564E18,-1.143219,-0.93014526,13.911148,0.17758179,-0.47647095,0.5720215,6.308937,-13.80558,-28.105736
1.458593595214098E18,-1.3310089,-0.15280151,14.827026,0.5621033,0.06613159,0.9747009,5.7922363,-14.318848,-28.022003
1.4585935952342397E18,0.16572571,0.26731873,11.547668,0.63153076,0.2626648,1.2203674,5.4475784,-14.404297,-27.519226
1.4585935952543813E18,1.6084442,0.5190582,10.572281,0.3121643,0.17294312,0.97576904,5.361557,-14.575386,-27.519226
1.458593595274523E18,0.7688141,1.4499054,9.956482,0.2341919,-0.18487549,0.5666809,5.361557,-14.575386,-27.267838
1.4585935952946644E18,0.05960083,1.4689331,8.47818,-0.15353394,-0.52560425,0.3477173,5.1893234,-15.003014,-26.848984
1.458593595314806E18,0.66200256,0.591095,8.221436,-0.7484741,-0.347229,0.21099854,4.8448563,-15.174103,-26.262474
1.4585935953349476E18,0.62538147,3.2043457E-4,9.906036,-1.1618347,0.20925903,0.08389282,4.8448563,-15.259552,-26.011086
1.4585935953601247E18,0.16230774,-0.3661499,9.835007,-0.84887695,0.12487793,0.06253052,4.758835,-15.345192,-25.84343
1.4585935953752307E18,0.3346405,-0.4597931,9.022675,-0.54660034,-0.11651611,0.119140625,4.8448563,-15.345192,-25.759697
1.4585935953953725E18,0.8762665,-0.13494873,7.802704,-0.27316284,-0.29489136,0.2013855,4.8448563,-15.430832,-25.927353
1.458593595415514E18,1.5272369,0.01965332,6.974411,-0.26568604,-0.16885376,0.24838257,4.758644,-15.345192,-25.5085
1.4585935954356557E18,1.6467743,0.25871277,8.210419,-0.15567017,0.103515625,0.30392456,4.327965,-15.430832,-25.676155
1.4585935954557972E18,1.453125,0.68211365,8.839737,0.23632813,0.14837646,0.33596802,4.2419434,-15.516472,-25.676155
1.4585935954759388E18,1.3856659,1.4454956,8.446152,0.6838684,0.007385254,0.33276367,4.500389,-15.77301,-25.84362
1.4585935954960804E18,1.5002289,1.925415,7.255768,0.8430176,-0.18807983,0.28042603,4.414177,-15.944099,-25.759888
1.458593595516222E18,1.6942139,2.5854797,6.580429,0.71377563,-0.20837402,0.16400146,4.327965,-16.200638,-25.592422
1.4585935955363635E18,1.7504272,2.7359314,7.619629,0.4446106,-0.21478271,-0.044281006,4.155731,-16.457367,-25.341034
1.4585935955565053E18,1.5701294,2.411255,9.260651,0.4168396,-0.319458,-0.15429688,3.7250519,-16.884995,-24.92218
1.458593595576647E18,1.8237915,2.0404358,9.551025,0.39120483,-0.39849854,-0.24935913,3.4666061,-17.569542,-24.754524
1.4585935955967885E18,2.0247803,1.9855804,9.159119,0.17010498,-0.14642334,-0.3305359,3.4666061,-18.16845,-24.251747
1.45859359561693E18,1.661911,1.9652863,8.713013,-0.15567017,0.049041748,-0.47045898,3.0359268,-18.424988,-24.251747
1.4585935956370716E18,0.91156006,1.5497284,9.019974,-0.59039307,0.0105896,-0.6242676,2.691269,-18.767357,-24.251747
1.4585935956572132E18,0.0033416748,0.7016754,11.057037,-0.9289856,0.14196777,-0.6680603,2.1745682,-19.195175,-24.586868
1.4585935956773548E18,-0.7671814,-0.23396301,12.9596405,-0.96209717,0.16012573,-0.4864807,1.9161224,-19.109726,-24.92199
1.4585935956974966E18,-0.15388489,-1.6961517,13.930634,-0.88412476,0.19430542,-0.25897217,1.6576767,-19.366455,-25.089455
1.4585935957176381E18,0.62142944,-2.4468536,14.802933,-0.68011475,0.34490967,-0.16818237,1.7438889,-19.537735,-25.424576
1.4585935957377797E18,0.5876007,-2.2400665,14.23027,-0.19091797,0.22421265,-0.09768677,1.6578674,-19.452095,-25.927353
1.4585935957528858E18,0.83547974,-1.3560486,12.495712,0.03338623,-0.0032958984,-0.091278076,1.4856339,-19.109726,-26.262474
1.4585935957780628E18,1.5254211,0.05718994,9.425888,-0.1578064,0.12594604,-0.1350708,1.4856339,-19.024277,-26.346207
1.4585935957982044E18,1.752655,0.4957428,8.310852,-0.44726563,0.44638062,-0.21838379,1.3996124,-18.767548,-26.597595
1.458593595818346E18,1.3460999,0.48132324,7.5486603,-0.65341187,0.6845703,-0.27713013,1.7440796,-18.596458,-26.681328
1.4585935958384876E18,0.9194031,0.79776,7.40831,-0.59573364,0.66748047,-0.29101563,1.8302917,-18.767548,-26.848793
1.4585935958586294E18,0.62709045,0.9916687,6.9310303,-0.43978882,0.53930664,-0.2814026,2.0025253,-18.596268,-26.932716
1.458593595878771E18,0.77101135,0.9657135,6.746292,-0.21334839,0.25305176,-0.32305908,2.260971,-18.339539,-27.100182
1.458593595893877E18,0.682251,1.1235809,7.044098,0.0152282715,0.12060547,-0.36151123,2.3469925,-18.339539,-27.183914
1.458593595919054E18,-0.21548462,0.95762634,7.584442,0.22137451,0.044769287,-0.32946777,2.6914597,-18.425179,-27.602959
1.4585935959391956E18,-0.79525757,1.0048523,8.047836,0.52578735,-0.018249512,-0.16177368,2.9497147,-18.339539,-27.93808
1.4585935959593372E18,-0.6945801,1.2877655,8.084793,0.7308655,-0.18167114,-0.0026245117,2.777481,-18.339539,-27.93808
1.4585935959794788E18,-0.03175354,1.5781097,7.6852875,0.75009155,-0.21478271,0.10952759,2.6052475,-18.510628,-28.105736
1.4585935959996204E18,0.42218018,1.9981232,8.216064,0.6144409,-0.18060303,0.092437744,2.5190353,-18.767357,-28.022003
1.4585935960197622E18,0.40626526,2.1166992,8.582916,0.37838745,-0.04815674,0.013397217,2.1745682,-18.938637,-28.022003
1.4585935960399037E18,-0.7690277,1.7035675,10.329407,0.18719482,0.044769287,0.02835083,1.6576767,-19.195366,-27.93827
1.4585935960600453E18,-1.2138214,1.2653503,11.390808,0.17437744,0.021270752,0.17681885,1.5716553,-19.366455,-28.105927
1.458593596080187E18,-0.9707947,0.8651123,11.845322,0.14447021,0.058654785,0.2793579,0.9687424,-19.879723,-28.022003
1.4585935961003284E18,-0.97358704,0.2893219,12.420868,0.103881836,0.020202637,0.3487854,0.5382538,-20.222092,-28.022003
1.45859359612047E18,-1.5615387,0.25068665,13.123428,0.13806152,0.11953735,0.5367737,0.6242752,-20.47882,-28.18966
1.4585935961406116E18,-1.3579865,0.43025208,12.165909,0.12310791,0.20391846,0.78030396,0.36582947,-20.47882,-28.273392
1.4585935961607534E18,-0.040618896,-0.14724731,11.704269,-0.102264404,0.14837646,0.76641846,0.27980804,-20.39318,-28.52478
1.458593596180895E18,-0.7077637,-0.2024231,13.349091,0.19467163,-0.05670166,0.65426636,0.45204163,-20.47863,-28.776169
1.4585935962010365E18,-1.4935455,0.32629395,10.47435,0.39761353,-0.4102478,0.56881714,0.5382538,-20.47863,-29.027557
1.458593596221178E18,-1.5670776,0.105163574,8.064758,-0.09692383,-0.70932007,0.49084473,0.021362305,-20.47863,-28.776169
1.4585935962413197E18,-0.60494995,-0.43403625,9.520706,-0.8232422,-0.46151733,0.47161865,-0.06465912,-20.050812,-28.776169
1.4585935962614612E18,-0.4860077,-1.0675049,11.2335205,-0.81256104,-0.06738281,0.5015259,-0.15087128,-19.879532,-28.776169
1.4585935962816028E18,-0.043670654,-1.2646179,10.254074,-0.54125977,0.081085205,0.61154175,-0.5815506,-19.793892,-28.776169
1.4585935963017444E18,0.7315216,-0.8602295,8.638107,-0.25820923,0.16012573,0.6628113,-0.5815506,-19.708252,-28.692436
1.4585935963218862E18,1.2475281,-0.46998596,7.2158813,-0.0178833,0.06826782,0.6702881,-0.7537842,-19.366074,-28.608704
1.4585935963420278E18,1.3999329,0.08540344,6.5150146,0.03125,0.044769287,0.61260986,-1.0120392,-19.023895,-28.52478
1.4585935963621693E18,0.6437378,0.37660217,7.504486,0.20428467,0.1227417,0.6553345,-1.3566971,-18.852615,-28.357124
1.458593596382311E18,0.3171234,0.96258545,7.8026733,0.5920105,0.12487793,0.78778076,-1.2704849,-18.681526,-28.775978
1.4585935964024525E18,0.669693,1.7558899,6.5138245,0.70095825,0.08856201,0.827301,-1.5289307,-18.681526,-28.859901
1.458593596422594E18,1.2866364,2.4136658,6.6557007,0.54608154,0.023406982,0.706604,-1.8733978,-18.681526,-29.027557
1.4585935964427356E18,1.8868713,2.1454468,8.41806,0.5012207,-0.008636475,0.40753174,-1.9594193,-18.767166,-29.11129
1.4585935964628774E18,1.312088,1.6041565,9.449402,0.54714966,0.06506348,0.22061157,-2.1316528,-18.767166,-28.859901
1.458593596483019E18,0.09359741,1.605896,9.846924,0.7735901,-0.07485962,0.18215942,-2.3900986,-19.366074,-28.775978
1.4585935965031606E18,-0.14118958,1.7400055,7.9101563,0.61016846,-0.3824768,0.21099854,-2.6485443,-19.366074,-28.859901
1.4585935965233021E18,0.53141785,1.6939697,7.430084,0.0056152344,-0.3600464,0.20352173,-2.7345657,-19.537354,-28.859901
1.4585935965434437E18,1.186966,1.2666626,9.713257,-0.6000061,0.0020446777,0.05505371,-2.7345657,-19.622993,-28.52478
1.4585935965635853E18,0.969223,0.0791626,11.383896,-0.78692627,0.042633057,0.018737793,-2.820778,-19.708633,-28.608513
1.4585935965837268E18,0.7224579,-0.7047882,13.642426,-0.5359192,-0.11117554,0.121276855,-2.820778,-19.708633,-28.692245
1.4585935966038684E18,1.0600433,-0.44833374,14.733597,0.08465576,-0.102630615,0.29751587,-2.820778,-19.622993,-28.52459
1.4585935966240102E18,2.650467,0.6202545,12.709137,0.66571045,-0.18914795,0.23876953,-2.90699,-19.708633,-28.692245
1.4585935966441518E18,3.8925934,1.1800995,8.833618,0.52471924,-0.29382324,-0.14147949,-2.90699,-19.451904,-28.692245
1.4585935966642934E18,4.015213,1.0097046,7.6534424,-0.3126831,-0.096221924,-0.6264038,-3.0792236,-19.537354,-28.692245
1.458593596684435E18,2.42836,0.23294067,10.452393,-0.68118286,0.22314453,-0.84643555,-3.2514572,-19.451714,-28.692245
1.4585935967045765E18,1.8581085,-0.09669495,11.288605,-0.4867859,0.2071228,-0.9286804,-3.5959244,-19.366074,-28.859901
1.458593596724718E18,2.2143555,-0.2381897,9.577698,-0.5348511,0.23382568,-1.0899658,-3.5959244,-19.280434,-28.859901
1.4585935967448596E18,1.3816376,-0.19186401,9.163544,-0.76449585,0.3972473,-1.322815,-3.3376694,-19.366074,-28.776169
1.4585935967650012E18,-0.23074341,-0.40260315,9.641418,-0.7388611,0.5361023,-1.304657,-2.9932022,-19.109344,-28.860092
1.458593596785143E18,-0.7511444,-0.17701721,9.732407,-0.5316467,0.7967224,-1.0985107,-2.820778,-18.938255,-28.860092
1.4585935968052846E18,-0.5935669,0.06317139,8.974472,-0.21228027,0.96121216,-0.90838623,-2.4763107,-18.852615,-29.027748
1.4585935968254262E18,-0.35993958,0.5677185,8.404282,0.08251953,0.9708252,-0.8293457,-2.0456314,-19.023895,-28.77636
1.4585935968455677E18,-0.50834656,0.9725189,7.9162445,0.4937439,0.8180847,-0.79837036,-1.2704849,-19.109535,-29.027748
1.4585935968657093E18,-0.98895264,1.1547852,7.088455,0.75650024,0.50512695,-0.739624,-0.32310486,-19.366264,-29.11148
1.458593596885851E18,-1.5448303,1.3419495,6.4731903,0.8237915,0.3128662,-0.55163574,0.45204163,-19.708633,-28.943825
1.4585935969059924E18,-1.7152252,1.780838,6.2310944,0.633667,0.28082275,-0.29849243,1.0549545,-20.050812,-28.860092
1.4585935969261343E18,-1.4687042,1.9155426,6.990692,0.32284546,0.3117981,-0.14788818,1.3134003,-20.73536,-28.776169
1.4585935969462758E18,-1.5739136,1.6936646,8.974396,0.2277832,0.14944458,-0.0058288574,1.5716553,-21.248627,-28.776169
1.4585935969664174E18,-1.7157288,1.5945282,9.179672,0.21710205,0.15905762,0.09030151,1.9161224,-21.676445,-28.776169
1.458593596986559E18,-1.9408417,1.5515442,9.182098,-0.081970215,0.13876343,0.2088623,2.1743774,-22.104073,-29.195023
1.4585935970067005E18,-2.127411,1.2812347,10.253723,-0.29238892,-0.041748047,0.2782898,1.8299103,-22.44625,-29.11129
1.458593597026842E18,-2.2293243,0.62387085,11.9223175,-0.30734253,-0.22332764,0.42889404,1.5714645,-22.5317,-29.11129
1.4585935970469837E18,-2.5251007,0.37763977,13.710907,-0.12896729,-0.115448,0.65426636,1.140976,-22.360611,-29.027557
1.4585935970671252E18,-2.1645508,0.8899689,13.343613,0.19894409,0.1302185,0.8967285,0.7965088,-22.189522,-28.859901
1.458593597087267E18,-1.0946655,0.44940186,11.33548,0.2833252,-0.14749146,0.90527344,0.6242752,-22.103882,-28.943825
1.4585935971074086E18,-0.6998749,0.583786,11.194672,0.30148315,-0.45510864,0.6649475,0.3660202,-21.847343,-28.859901
1.4585935971275502E18,-1.9172363,0.87127686,10.147522,0.3474121,-0.7691345,0.4897766,-0.064468384,-21.761894,-28.692245
1.4585935971476918E18,-1.7164917,-0.017501831,8.536011,-0.15032959,-1.1184082,0.38830566,-0.4951477,-21.419716,-28.52478
1.4585935971678333E18,-0.77082825,-0.8204498,9.809967,-0.7559509,-0.7766113,0.3829651,-0.667572,-21.162987,-28.441048
1.458593597187975E18,-0.5227661,-1.4028931,11.232605,-0.8531494,-0.2350769,0.42889404,-1.2704849,-20.735168,-28.357315
1.4585935972081165E18,-0.22058105,-1.4196472,10.051224,-0.75061035,0.14196777,0.56134033,-1.8735886,-20.563889,-28.357315
1.458593597228258E18,0.5205841,-0.9561157,8.576691,-0.5508728,0.21459961,0.5933838,-2.3902893,-20.47844,-28.692436
1.4585935972484E18,1.3495483,-0.894516,7.199112,-0.35006714,-9.1552734E-5,0.49832153,-3.0794144,-20.136261,-28.859901
1.4585935972685414E18,1.0813293,-0.34268188,7.0582886,-0.24859619,-0.07272339,0.39471436,-3.682518,-20.050621,-28.943825
1.458593597288683E18,-0.058441162,0.09768677,7.7953796,-0.05206299,0.015930176,0.50686646,-4.1131973,-19.622803,-29.278946
1.4585935973088246E18,-0.10461426,0.5349426,8.215179,0.3324585,-0.017181396,0.6927185,-4.5438766,-19.366074,-29.278946
1.4585935973289661E18,0.59306335,1.258316,7.926895,0.59628296,-0.03640747,0.7642822,-4.974556,-18.852806,-29.195023
1.4585935973491077E18,1.0005188,1.9651184,7.918503,0.8462219,-0.18487549,0.6147461,-5.319023,-18.852806,-29.195023
1.4585935973692493E18,1.1103363,2.282669,7.3637695,0.76290894,-0.17419434,0.49298096,-5.4912567,-19.024086,-29.362679
1.458593597389391E18,0.8229675,2.1837616,8.2901,0.56637573,-0.15603638,0.40112305,-5.921936,-19.024086,-29.278946
1.4585935974095327E18,1.0339661,2.2173462,9.052444,0.522583,-0.06951904,0.19284058,-6.3526154,-19.024086,-29.027557
1.4585935974296742E18,1.220108,2.1506042,8.843796,0.3890686,0.07040405,-0.012237549,-6.6108704,-19.109726,-29.11129
1.4585935974498158E18,0.29667664,2.014328,8.199753,0.010955811,0.25732422,-0.20663452,-7.127762,-19.195175,-28.943825
1.4585935974699574E18,-0.45495605,1.964035,7.990204,-0.43658447,0.21887207,-0.2899475,-7.2999954,-19.366455,-28.859901
1.458593597490099E18,-0.4175415,1.3144531,8.649979,-1.0261841,0.42074585,-0.33480835,-7.472229,-19.708633,-29.195023
1.4585935975102405E18,-0.8851013,0.63194275,10.603455,-1.2868042,0.75613403,-0.2621765,-7.558441,-19.794273,-29.278755
1.458593597530382E18,-1.6374664,0.63723755,12.527847,-1.1340637,0.625824,-0.127594,-7.3862076,-19.708633,-29.529953
1.458593597550524E18,-0.6147003,0.0055389404,12.537811,-0.7591553,0.40151978,0.016601563,-7.1279526,-19.451904,-29.529953
1.4585935975706655E18,0.54515076,-0.6085663,12.280472,-0.636322,0.2690735,-0.09555054,-6.6972733,-19.109726,-30.03273
1.458593597590807E18,1.0480042,-1.5327454,12.108261,-0.47503662,0.018066406,-0.3390808,-6.4390182,-18.596268,-30.451584
1.4585935976109486E18,0.4158783,-1.8031006,11.731125,-0.4675598,0.015930176,-0.49822998,-6.008339,-17.997551,-30.786705
1.4585935976310902E18,-0.8247986,-1.4667206,11.540283,-0.48464966,0.11740112,-0.5292053,-5.749893,-17.398643,-31.457138
1.4585935976512317E18,-1.7631073,-1.245575,10.727463,-0.39492798,0.18469238,-0.32626343,-5.319214,-17.056465,-31.876183
1.4585935976713733E18,-1.5142212,-1.0923004,8.94249,-0.3618164,0.24771118,-0.072052,-4.974556,-16.457558,-32.37896
1.458593597691515E18,-1.236145,-1.0398407,7.1635437,-0.5797119,0.45065308,0.1458435,-4.71611,-15.85865,-32.881737
1.4585935977116567E18,-1.4154358,-1.1007843,7.0979767,-0.7954712,0.62368774,0.34451294,-4.3714523,-15.516472,-33.384514
1.4585935977317983E18,-1.3729858,-0.89346313,8.323944,-0.664093,0.5008545,0.4673462,-4.026985,-15.1742935,-33.635902
1.4585935977519398E18,-1.510315,-0.40560913,9.245377,-0.06915283,0.25411987,0.6222229,-3.4238815,-14.917755,-33.971214
1.4585935977720814E18,-1.584259,-0.029785156,8.444626,0.48519897,-0.07913208,0.8038025,-2.9932022,-14.832115,-34.47399
1.458593597792223E18,-1.2846069,0.5068817,6.927002,0.75756836,-0.5085144,0.9447937,-2.648735,-14.746475,-34.809113
1.4585935978123645E18,-0.6958313,0.96539307,6.0467987,0.6123047,-0.66018677,1.0014038,-2.562523,-14.318657,-35.0605
1.458593597832506E18,0.33872986,1.2311096,6.793991,0.32818604,-0.54696655,0.84332275,-2.4765015,-14.404297,-34.976578
1.458593597852648E18,-0.0013427734,0.96694946,8.188705,-0.06915283,-0.19128418,0.68096924,-2.3902893,-14.489937,-35.144234
1.4585935978727895E18,-1.0106659,0.48861694,10.119461,-0.037109375,-0.16564941,0.6446533,-2.3902893,-14.233208,-35.395622
1.458593597892931E18,-1.7559357,0.41729736,10.118881,0.05154419,-0.2767334,0.72262573,-2.3902893,-14.233208,-35.56328
1.4585935979130726E18,-1.5461426,0.36372375,9.732407,-0.14071655,-0.27246094,0.7685547,-2.7349472,-14.233208,-35.56328
1.4585935979332142E18,-1.656189,-0.06399536,10.197708,-0.45794678,-0.13253784,0.7140808,-2.993393,-14.1477585,-35.479546
1.4585935979533558E18,-2.2232056,-0.8638458,11.915939,-0.68759155,0.076812744,0.7674866,-2.993393,-13.634491,-35.64701
1.4585935979734973E18,-2.7035065,-1.527008,14.275009,-0.41522217,0.107788086,0.94799805,-3.079605,-13.549042,-35.814476
1.458593597993639E18,-2.650406,-1.5230103,14.749832,0.18399048,-0.03427124,1.0612183,-2.993393,-13.292313,-36.317253
1.4585935980137807E18,-2.9267426,-1.6447296,12.314697,0.43606567,-0.044952393,1.1765747,-3.1656265,-12.779045,-36.652374
1.4585935980339223E18,-3.0434265,-0.94262695,10.383804,0.4232483,-0.21051025,1.253479,-3.2518387,-12.607956,-37.071228
1.458593598054064E18,-2.5309448,0.2676239,8.329681,0.15194702,-0.4380188,1.1861877,-3.33786,-12.351227,-37.322426
1.4585935980742054E18,-1.3479156,0.22541809,7.341812,-0.46221924,-0.6270752,0.9234314,-3.5100937,-11.9234085,-37.74128
1.458593598094347E18,-1.4126129,-0.29077148,8.812042,-0.9941406,-0.6409607,0.61154175,-3.6823273,-11.58123,-38.0764
1.458593598119524E18,-2.0331268,-1.3826599,10.770676,-1.0187073,-0.33547974,0.6905823,-3.7683487,-11.410141,-38.244057
1.4585935981346301E18,-1.7517853,-1.5989075,10.611771,-0.80722046,-0.22225952,0.80914307,-3.85437,-10.8112335,-38.495445
1.458593598154772E18,-0.89489746,-1.3884735,9.714859,-0.44299316,-0.11010742,0.97576904,-4.112816,-10.126877,-38.830566
1.4585935981749135E18,-0.3132782,-1.1981201,8.360657,-0.17062378,-0.11437988,0.9949951,-4.199028,-9.955788,-39.081955
1.458593598195055E18,-0.69485474,-0.81889343,8.231094,0.08251953,-0.30664063,0.95547485,-4.0267944,-9.44252,-39.50081
1.4585935982151967E18,-1.4503479,-0.45295715,8.300446,0.4446106,-0.45724487,1.0088806,-4.28524,-9.014893,-39.83612
1.4585935982353382E18,-1.6660004,-0.061676025,7.727951,0.67318726,-0.49569702,1.1188965,-4.3714523,-8.672714,-39.919853
1.4585935982554798E18,-1.3610992,0.40841675,7.1779785,0.7255249,-0.662323,1.243866,-4.4576645,-8.672714,-40.17124
1.4585935982756214E18,-0.28295898,0.78456116,7.256363,0.66464233,-0.8225403,1.1167603,-4.629898,-8.587265,-40.506363
1.458593598295763E18,-0.57569885,0.4969635,8.664963,0.5994873,-0.8738098,0.92022705,-4.888344,-8.758354,-40.67402
1.4585935983159048E18,0.3312683,1.072586,9.945221,0.8814697,-1.0361633,0.6158142,-5.232811,-9.015083,-40.506554
1.4585935983360463E18,0.46696472,0.37709045,9.153656,0.84729004,-1.1750183,0.36587524,-5.4912567,-9.1861725,-40.338898
1.4585935983612232E18,0.98579407,0.10508728,9.310944,0.5300598,-1.0906372,-0.06350708,-6.180191,-9.78508,-39.920044
1.4585935983763295E18,0.47853088,-0.39886475,9.318024,0.2555542,-0.7904968,-0.1842041,-6.6108704,-10.127258,-39.83612
1.458593598396471E18,-0.18650818,-1.0287781,9.221359,-0.2774353,-0.15924072,-0.16711426,-6.9553375,-10.726166,-39.668655
1.4585935984166126E18,-0.76239014,-1.3461609,10.460434,-0.6277771,0.40151978,0.10525513,-7.2135925,-10.811615,-39.501
1.4585935984367542E18,-0.51231384,-0.8110962,12.36702,-0.4526062,0.55532837,0.3199463,-7.4720383,-11.068153,-39.417267
1.4585935984568957E18,0.8513489,-0.3259735,11.820023,-0.01574707,0.47094727,0.3007202,-7.644272,-11.495972,-39.333534
1.4585935984770376E18,1.5864563,-0.7667694,9.95668,-0.13430786,0.49017334,0.092437744,-7.5582504,-11.667061,-39.668655
1.4585935984971791E18,0.8464203,-0.7557831,10.1705475,-0.32336426,0.5510559,-0.019714355,-7.5582504,-11.581421,-39.920044
1.4585935985173207E18,0.111587524,-1.0819702,9.760666,-0.26034546,-0.028930664,0.010192871,-7.386017,-11.410332,-40.255165
1.4585935985374623E18,1.4679565,-1.64151,8.442429,-0.5017395,-0.7947693,0.0016479492,-7.127571,-11.324692,-40.590286
1.4585935985576038E18,1.8609924,-1.8895416,9.179062,-1.0133667,-1.1611328,0.00592041,-7.041359,-10.982513,-40.841675
1.4585935985777454E18,1.7894135,-1.6125946,10.519989,-1.0582275,-0.65805054,0.07107544,-6.9553375,-10.897064,-41.26053
1.458593598597887E18,1.6443329,-1.3162689,10.534637,-0.79333496,-0.07699585,0.21740723,-6.869316,-10.469437,-41.34426
1.4585935986180288E18,1.5405731,-1.0315704,9.638565,-0.4376526,-0.27246094,0.32635498,-6.869316,-9.870529,-41.59546
1.4585935986381704E18,1.3977051,-0.1063385,9.390991,-0.14605713,-0.4444275,0.35412598,-6.869316,-9.528351,-41.511726
1.458593598658312E18,0.8066101,0.4825287,8.998611,0.2064209,-0.0385437,0.3348999,-7.0415497,-9.357262,-41.846848
1.4585935986784535E18,0.0021820068,0.50471497,8.408157,0.45315552,0.37374878,0.41714478,-6.9555283,-9.100533,-42.098236
1.458593598698595E18,-0.27101135,0.5572357,7.5679474,0.5161743,0.62368774,0.56881714,-6.9555283,-9.015083,-42.18216
1.4585935987187366E18,0.023010254,0.64146423,7.270523,0.3954773,0.7251587,0.613678,-6.524849,-8.843994,-42.51728
1.4585935987388782E18,0.058380127,0.60583496,8.553238,0.51083374,0.3822937,0.5378418,-6.0941696,-8.758354,-42.601204
1.4585935987590198E18,-0.41297913,0.36862183,9.977921,0.7095032,0.15478516,0.5592041,-5.9217453,-8.929443,-42.684937
1.4585935987791616E18,-0.61035156,0.29866028,9.798813,0.8323364,0.13983154,0.66922,-5.4050446,-9.271622,-42.601204
1.4585935987993032E18,-0.24856567,0.24742126,8.96608,0.5588989,0.2915039,0.7546692,-4.888153,-9.52816,-42.936325
1.4585935988194447E18,-0.4564972,0.12173462,9.604141,0.3046875,0.23382568,0.7471924,-4.1130066,-10.127068,-42.684937
1.4585935988395863E18,-0.6976013,-0.25238037,10.404968,0.18078613,-0.26391602,0.7055359,-3.9405823,-10.469246,-42.433548
1.458593598859728E18,-0.80148315,-0.9218445,11.448517,0.14553833,-0.5031738,0.7471924,-3.596115,-10.811424,-42.349625
1.4585935988798694E18,-1.0054474,-1.554779,13.022415,0.23526001,-0.5661926,0.9576111,-3.6823273,-11.410141,-42.18197
1.458593598900011E18,-0.94718933,-0.68388367,13.346359,0.44140625,-0.34295654,1.2427979,-3.6823273,-11.66687,-42.014313
1.4585935989201526E18,0.512558,-1.3176117,12.119186,0.4232483,-0.0032958984,1.3901978,-4.026985,-12.094498,-41.93058
1.4585935989402944E18,0.36779785,-0.92362976,12.308762,0.4243164,0.25305176,1.3293152,-4.285431,-12.265587,-41.93058
1.458593598960436E18,-0.46064758,0.39672852,9.94368,0.5984192,-0.18167114,1.1060791,-4.630089,-12.522316,-41.67919
1.4585935989805775E18,-0.3918152,0.24455261,6.9119263,0.10494995,-0.9378967,0.8678894,-4.974556,-12.522316,-41.511726
1.458593599000719E18,-0.28286743,-0.38426208,8.462723,-0.47503662,-0.93148804,0.762146,-5.2330017,-12.522316,-41.511726
1.4585935990208607E18,-0.39683533,-1.256073,10.053726,-0.72817993,-0.35577393,0.8337097,-5.7497025,-12.436676,-41.34426
1.4585935990410022E18,0.063308716,-2.2207184,10.1539,-0.7046814,0.060791016,0.9608154,-6.0941696,-11.752319,-41.26053
1.4585935990611438E18,0.8735962,-2.4176483,9.911819,-0.50387573,0.2284851,1.0996704,-6.3526154,-11.410141,-41.26053
1.4585935990812856E18,1.6756439,-1.8002777,9.855896,-0.09799194,0.22634888,1.0911255,-6.0941696,-10.896873,-41.26053
1.4585935991014272E18,1.7509613,-0.8722534,9.860443,0.40402222,0.2840271,1.0345154,-6.266403,-10.811424,-41.00914
1.4585935991215688E18,1.6770477,-0.030578613,9.731964,1.023529,0.18789673,1.0227661,-6.180191,-10.554695,-41.00914
1.4585935991417103E18,1.6513977,0.65231323,8.787186,1.477478,-0.104766846,0.92129517,-6.524658,-10.212517,-40.925407
1.458593599161852E18,1.6459045,1.1646423,7.2959137,1.7135315,-0.5523071,0.71728516,-6.696892,-10.212517,-40.67402
1.4585935991819935E18,1.3473511,1.6753998,6.32312,1.430481,-0.5651245,0.57095337,-6.783104,-10.640335,-40.506363
1.458593599202135E18,0.88623047,1.8371277,7.266342,0.9647827,-0.07272339,0.52822876,-6.783104,-11.495781,-40.42263
1.4585935992222766E18,0.8024597,1.4178619,9.164352,0.7832031,0.30859375,0.6019287,-7.041359,-12.351227,-40.42263
1.4585935992424184E18,1.1118469,1.2226715,9.454697,0.79067993,0.30325317,0.5816345,-7.2135925,-13.206673,-40.08751
1.45859359926256E18,1.5670776,1.3327332,8.693436,0.6753235,0.18789673,0.43850708,-7.1273804,-13.891029,-39.920044
1.4585935992827016E18,1.6316986,1.2566376,7.7957153,0.31430054,0.023406982,0.23556519,-7.299614,-14.575386,-39.584923
1.4585935993028431E18,1.179779,1.0479736,7.865799,-0.23150635,0.21459961,0.08282471,-7.2135925,-15.174103,-39.24961
1.4585935993229847E18,0.09895325,0.68585205,9.157227,-0.63952637,0.44424438,0.05291748,-6.9553375,-15.68737,-38.998222
1.4585935993431263E18,-0.7602997,0.026046753,10.388596,-0.7826538,0.35879517,0.20565796,-6.6108704,-15.516281,-38.830757
1.4585935993632678E18,-0.08328247,-0.05911255,11.57785,-0.7046814,0.22314453,0.45880127,-6.266403,-15.345192,-38.57937
1.4585935993834097E18,2.1340485,-0.440094,11.440002,-0.6427307,0.062927246,0.4053955,-5.835724,-15.003014,-38.244247
1.4585935994035512E18,3.1685944,-0.14439392,11.897293,-0.36608887,-0.22332764,0.12768555,-5.4912567,-14.746475,-38.411903
1.4585935994236928E18,3.2857056,0.21386719,10.403458,-0.030700684,-0.60891724,-0.2194519,-5.4912567,-14.147568,-38.32798
1.4585935994438344E18,3.0937042,0.66018677,8.17247,-0.14498901,-0.64416504,-0.4565735,-5.232811,-13.6343,-38.160324
1.458593599463976E18,2.5944672,0.5682678,7.0208893,-0.6683655,-0.30877686,-0.6274719,-4.8021317,-12.949944,-38.160324
1.4585935994841175E18,1.7375488,-0.750412,7.3878784,-1.2056274,0.15371704,-0.5836792,-4.543686,-12.351227,-38.07659
1.458593599504259E18,1.2552185,-1.292572,9.542343,-1.3060303,0.46774292,-0.45870972,-4.1130066,-11.837959,-38.244057
1.4585935995244006E18,0.79200745,-1.6493835,10.364639,-1.0133667,0.51794434,-0.3518982,-4.0267944,-11.324692,-38.244057
1.4585935995445425E18,0.54574585,-1.4422455,10.059296,-0.626709,0.37908936,-0.22799683,-3.7685394,-10.640335,-38.411713
1.458593599564684E18,0.61221313,-0.8102722,9.277954,-0.22723389,0.25305176,-0.14041138,-3.6823273,-10.212517,-38.411713
1.4585935995848256E18,0.5735016,-0.09490967,8.645096,0.009887695,0.19216919,-0.07525635,-3.251648,-9.699249,-38.6631
1.4585935996049672E18,0.56437683,0.684494,8.712311,0.29507446,0.17294312,-0.027191162,-2.8209686,-9.185982,-38.746834
1.4585935996251087E18,0.56632996,1.218277,8.607864,0.4734497,0.22528076,0.015533447,-2.4763107,-9.014893,-38.830757
1.4585935996452503E18,0.40386963,1.3851013,8.509888,0.5236511,0.38336182,0.021942139,-2.1316528,-8.843803,-39.2498
1.458593599665392E18,0.4486084,1.1860199,8.450333,0.52578735,0.28295898,0.0027160645,-1.8732071,-8.758163,-39.082336
1.4585935996855334E18,0.25454712,1.1810608,9.215561,0.5311279,0.13555908,-0.004760742,-1.2702942,-8.843803,-39.2498
1.4585935997056753E18,-0.13511658,0.87275696,9.787491,0.51831055,0.23062134,0.076416016,-1.0118484,-9.100342,-38.91449
1.4585935997258168E18,-0.48760986,0.6894226,10.257507,0.49588013,0.30004883,0.21206665,-0.40893555,-9.271431,-38.6631
1.4585935997459584E18,-0.43730164,0.7150116,10.326645,0.522583,0.23916626,0.34344482,0.021743774,-9.7846985,-38.495636
1.4585935997661E18,-0.35386658,0.8125305,9.866516,0.31430054,0.10671997,0.38937378,0.5384445,-9.955788,-38.495636
1.4585935997862415E18,-0.11790466,0.31523132,10.251785,0.052612305,-0.012908936,0.3979187,1.0551453,-10.126877,-38.411713
1.458593599806383E18,-0.3274994,-0.19284058,11.754654,-0.06915283,-0.031066895,0.49404907,1.3996124,-10.383415,-37.99267
1.4585935998265247E18,-0.43663025,0.54141235,12.84259,0.124176025,-0.073791504,0.67456055,1.7440796,-10.725594,-37.99267
1.4585935998466665E18,0.4799652,0.54119873,11.339569,0.042999268,-0.059906006,0.6841736,2.0023346,-10.811043,-37.74128
1.458593599866808E18,0.5157776,-0.3098297,11.453232,-0.11401367,0.06399536,0.6628113,2.433014,-11.067772,-37.825203
1.4585935998869496E18,-0.23924255,0.25154114,13.104263,0.35488892,-0.19128418,0.59872437,2.6052475,-11.067772,-37.825203
1.4585935999070912E18,-0.5404053,1.1438599,9.581375,0.6411438,-0.8748779,0.45773315,2.8635025,-11.153412,-37.99267
1.4585935999272328E18,0.17292786,0.24472046,6.3584595,-0.026428223,-0.95391846,0.3477173,2.691269,-11.58123,-38.07659
1.4585935999473743E18,0.33407593,-0.8843231,7.5166626,-1.1500854,-0.16351318,0.3626709,2.4328232,-11.752319,-37.99286
1.458593599967516E18,0.05079651,-1.4171753,11.432495,-1.1960144,0.25732422,0.45239258,2.4328232,-11.66687,-38.07659
1.4585935999826222E18,0.09837341,-1.3571014,11.91069,-0.5423279,-0.0043640137,0.5090027,2.3468018,-11.495781,-38.07659
1.4585936000077993E18,0.69415283,-0.6126709,9.510834,0.039794922,-0.22866821,0.5239563,2.1745682,-11.324692,-37.909126
1.4585936000279409E18,0.6679077,0.017318726,7.703186,0.13699341,-0.11972046,0.5442505,2.1745682,-11.153603,-37.909126
1.4585936000480824E18,0.35112,0.4124298,7.7415924,0.21817017,0.06506348,0.61260986,2.1745682,-11.239243,-37.909126
1.458593600068224E18,0.31800842,0.4403534,8.019455,0.41577148,0.09817505,0.76641846,2.3469925,-10.725975,-37.574005
1.4585936000883656E18,0.9264679,0.59555054,8.331039,0.6272583,0.031951904,0.8305054,2.433014,-10.554886,-37.238884
1.4585936001085071E18,1.443924,0.8618469,8.556,0.80563354,-0.023590088,0.76000977,2.519226,-10.469437,-36.987495
1.4585936001286487E18,1.5737,0.6894226,8.572205,0.7746582,-0.100494385,0.623291,2.6052475,-10.811615,-36.736298
1.4585936001487903E18,1.436142,0.65579224,9.143097,0.6849365,0.052246094,0.5805664,2.777481,-11.068344,-36.23352
1.458593600168932E18,1.6426544,0.9920654,9.839615,0.67852783,0.1932373,0.530365,2.8636932,-11.667252,-35.982132
1.4585936001890737E18,2.2511444,1.5663452,9.424088,0.7233887,0.2284851,0.34664917,3.0359268,-12.180519,-35.563087
1.4585936002092152E18,2.290512,1.858078,7.9358826,0.4862671,0.36627197,0.07748413,3.2943726,-12.522697,-35.144043
1.4585936002293568E18,1.9591217,1.9700165,7.3421173,-0.077697754,0.60873413,-0.2055664,3.7250519,-13.207054,-34.72519
1.4585936002494984E18,1.1071625,1.2003326,8.6671295,-0.45367432,0.6397095,-0.387146,4.2419434,-13.805771,-34.557533
1.45859360026964E18,0.38771057,0.28761292,10.810593,-0.44406128,0.30218506,-0.35617065,4.758644,-14.233398,-34.306145
1.4585936002897815E18,0.9837189,-0.09893799,12.389725,0.0066833496,0.121673584,-0.21517944,5.3617477,-14.404488,-33.970833
1.4585936003099233E18,1.4493408,0.45951843,12.027191,0.50442505,-0.0032958984,-0.09555054,5.9646606,-14.661026,-33.8871
1.458593600330065E18,2.728531,1.551239,9.858231,0.67852783,-0.07699585,-0.11264038,6.4813614,-15.003204,-33.63571
1.4585936003502065E18,4.373062,1.2606201,6.4148254,-0.36608887,0.15478516,-0.59436035,6.739807,-15.259743,-33.216858
1.458593600370348E18,4.0220947,-0.45726013,6.429764,-1.3978882,0.625824,-0.9190674,7.0842743,-15.516281,-32.881737
1.4585936003904896E18,1.6959381,-1.7112732,11.61676,-1.6147156,0.783905,-1.1487122,7.256508,-15.430641,-32.63035
1.4585936004106312E18,-0.039733887,-1.7192688,13.505783,-0.9065552,0.32461548,-1.045105,7.687187,-15.003014,-32.12757
1.4585936004307727E18,0.10702515,-1.0384827,10.004974,-0.3831787,-0.17312622,-0.90838623,8.1178665,-14.746475,-31.79245
1.4585936004509143E18,0.7548065,-0.8539276,6.8072815,-0.5839844,-0.15603638,-0.8432312,8.3761215,-14.575386,-31.457329
1.458593600471056E18,0.47053528,-1.4460602,7.4565887,-1.0229797,0.15264893,-0.6894226,8.634567,-14.233208,-31.038284
1.4585936004911977E18,-0.18708801,-1.2602844,10.851624,-0.6341858,0.23916626,-0.4992981,9.151459,-13.548851,-30.703163
1.4585936005113393E18,-0.4308014,-0.47746277,11.43306,0.36343384,0.009521484,-0.35723877,9.495926,-13.206673,-30.535507
1.4585936005314808E18,-0.34568787,0.36871338,8.597916,0.98721313,-0.2831421,-0.34762573,10.098839,-12.779045,-30.367851
1.4585936005516224E18,-0.27037048,0.75801086,6.750458,1.0523682,-0.3675232,-0.38928223,10.357285,-12.779045,-29.948807
1.458593600571764E18,-0.5192261,1.32164,6.167877,0.8248596,-0.42626953,-0.4725952,10.443497,-12.864494,-29.948807
1.4585936005868703E18,-1.01091,1.099884,6.5794983,0.4798584,-0.19128418,-0.41278076,10.701942,-13.121033,-29.697418
1.4585936006120474E18,-1.4926758,0.67855835,8.604446,0.3196411,0.056518555,-0.27178955,10.874367,-13.377571,-29.613686
1.458593600632189E18,-1.5993652,0.5553131,9.865036,0.39120483,0.06399536,-0.15856934,11.1328125,-13.6343,-29.44622
1.4585936006523305E18,-1.7825775,0.5457306,9.617462,0.3121643,0.036224365,-0.042144775,11.391258,-14.147568,-29.1111
1.458593600672472E18,-1.4454498,0.6816864,10.708939,0.1925354,-0.057769775,0.0027160645,11.735916,-14.404297,-28.440857
1.4585936006926136E18,-1.27565,0.4367218,11.707825,0.2341919,-0.32052612,-0.031463623,11.735916,-14.831924,-27.770615
1.4585936007127552E18,-1.11203,-0.3075409,12.511093,0.32177734,-0.7125244,-0.04321289,11.821938,-15.088654,-27.686882
1.4585936007328968E18,-1.4584808,-0.37646484,13.882996,0.51083374,-0.9133301,0.16506958,11.994171,-15.430832,-27.01664
1.4585936007530383E18,-0.6009979,0.32763672,13.312805,0.6742554,-0.6334839,0.35198975,11.90815,-15.601921,-26.514053
1.4585936007731802E18,-0.4748993,-0.7416687,11.145218,0.30255127,-0.20089722,0.5164795,11.994171,-15.77301,-25.592422
1.4585936007933217E18,-1.5419769,-0.42489624,12.423035,0.28225708,0.029815674,0.8123474,11.907959,-16.371727,-25.005913
1.4585936008134633E18,-1.1937561,0.8265991,10.352051,0.52578735,-0.005432129,1.0793762,11.907959,-16.542816,-24.503136
1.4585936008336049E18,0.08303833,1.1682434,6.812851,-0.039245605,-0.06417847,1.1092834,11.735725,-16.884995,-24.33548
1.4585936008537464E18,1.6073456,0.7093048,6.468796,-0.76556396,-0.18701172,0.8967285,11.563492,-17.056084,-23.74897
1.458593600873888E18,1.8458099,0.092681885,9.076172,-1.191742,-0.15283203,0.5816345,11.563492,-17.227173,-23.078728
1.4585936008940296E18,1.0987396,-0.4792328,11.548889,-0.88412476,-0.11224365,0.57629395,11.305046,-17.483902,-22.57595
1.4585936009141711E18,1.1874237,-0.24261475,10.6315155,-0.3468628,0.06719971,0.7568054,11.3910675,-17.483902,-22.073174
1.458593600934313E18,2.3319702,0.28529358,8.20784,-0.25073242,0.3470459,0.8315735,11.305046,-17.398453,-21.905518
1.4585936009544545E18,2.9717407,0.61083984,7.851013,-0.38104248,0.6546631,0.7055359,11.1328125,-17.141914,-21.40274
1.458593600974596E18,2.419983,0.5992737,9.692581,-0.07876587,0.49658203,0.60513306,10.960579,-17.141914,-20.899963
1.4585936009947377E18,1.1664734,0.68984985,10.734879,0.7383423,-0.05456543,0.59124756,10.960579,-16.970825,-20.48111
1.4585936010148792E18,0.48275757,1.1114197,8.909485,1.3557129,-0.48287964,0.77923584,10.788345,-16.885376,-20.062256
1.4585936010350208E18,1.6152954,1.4225311,6.752655,1.1719971,-0.402771,0.92022705,10.8745575,-16.885376,-19.475746
1.4585936010551624E18,2.6100159,1.5069885,7.1647644,0.8355408,-0.1506958,0.83477783,10.8745575,-16.885376,-18.805504
1.4585936010753042E18,2.7552643,1.1812897,8.694748,0.6603699,-0.25964355,0.59124756,10.616112,-17.313194,-18.13507
1.4585936010954458E18,2.787918,0.84017944,9.532501,0.79922485,-0.745636,0.270813,10.443687,-17.398643,-17.632294
1.4585936011155873E18,2.5862885,0.2886505,8.985245,0.6550293,-0.7937012,0.03475952,10.271454,-17.655182,-17.297173
1.458593601135729E18,2.195343,0.4333496,8.735275,0.2769165,-0.39849854,-0.042144775,10.09903,-17.91172,-16.794395
1.4585936011558705E18,2.0914154,0.23454285,8.472,-0.12789917,-0.096221924,-0.089141846,10.012817,-18.168259,-15.872574
1.458593601176012E18,2.466156,-0.08665466,9.03421,-0.55300903,0.15158081,-0.18634033,9.840584,-18.339348,-15.369797
1.4585936011961536E18,2.0383148,0.23320007,11.018417,-0.53378296,0.27548218,-0.27392578,9.66835,-18.253708,-14.86702
1.4585936012162952E18,1.9479065,0.2715149,11.305496,-0.28704834,0.28936768,-0.27713013,9.66835,-17.996979,-14.615631
1.458593601236437E18,2.9215393,-0.023864746,10.524384,-0.25180054,0.39831543,-0.303833,9.66835,-17.74025,-14.364243
1.4585936012565786E18,3.2935486,0.33317566,10.138351,-0.27529907,0.6482544,-0.4928894,9.840775,-17.74025,-13.694
1.45859360127672E18,2.9384918,0.6675873,8.7851715,-0.41522217,0.73583984,-0.79837036,10.09922,-17.398071,-12.939835
1.4585936012918262E18,2.5309296,0.7792969,7.885742,-0.6929321,0.524353,-1.1241455,10.5299,-16.884804,-12.437248
1.4585936013170033E18,1.8524323,0.14790344,8.133972,-0.9065552,0.28616333,-1.3933105,10.788345,-16.457176,-12.269783
1.4585936013371448E18,0.971756,-0.78622437,8.175247,-1.220581,0.5660095,-1.4958496,11.391258,-16.029358,-12.018394
1.4585936013572864E18,-0.3131714,-1.7624054,9.142517,-1.2643738,0.85440063,-1.3783569,11.649513,-15.7728195,-11.683273
1.458593601377428E18,-1.3677521,-1.8711395,9.187241,-1.0795898,0.87789917,-1.0023804,11.821747,-15.430641,-11.431885
1.4585936013975698E18,-1.4025421,-1.0638733,9.069656,-0.8606262,0.9921875,-0.48327637,12.338638,-14.7462845,-11.180687
1.4585936014177114E18,-0.21520996,-0.03239441,8.946915,-0.5861206,1.0370483,-0.27713013,12.683105,-14.147568,-11.096954
1.458593601437853E18,0.08262634,0.6634064,8.691711,-0.23150635,0.8736267,-0.24081421,13.113594,-13.463211,-10.845566
1.4585936014579945E18,-0.18748474,1.2734222,8.679337,0.17437744,0.58096313,-0.17993164,13.113594,-13.0355835,-10.594177
1.458593601478136E18,-0.7071533,1.7184143,8.161438,0.45635986,0.36306763,0.008056641,13.371849,-12.693405,-9.923935
1.4585936014982776E18,-0.2824402,1.7846985,7.8907013,0.5418091,0.16867065,0.15118408,13.285637,-12.180138,-9.421158
1.4585936015184192E18,0.24821472,1.8786163,8.242233,0.49588013,-0.023590088,0.15866089,13.371849,-11.66687,-9.3372345
1.4585936015435963E18,0.037475586,1.8197632,9.291779,0.35595703,-0.14428711,0.13302612,13.802528,-11.410332,-8.834457
1.4585936015587026E18,-0.08241272,1.5761261,10.162704,0.34848022,-0.2211914,0.17147827,13.716316,-11.3248825,-8.4991455
1.4585936015788442E18,-0.2735443,1.2922668,10.206894,0.24487305,-0.19555664,0.25265503,13.716316,-11.239243,-8.163834
1.4585936015989857E18,-0.24990845,0.99749756,10.12439,0.04940796,-0.13360596,0.27401733,13.458061,-11.239243,-8.080101
1.4585936016191273E18,-0.37324524,0.35055542,10.112595,-0.20159912,-0.12826538,0.29431152,13.37204,-10.982513,-7.9961777
1.4585936016392689E18,-0.2771454,-0.40681458,10.983994,-0.4739685,-0.14535522,0.31567383,13.113785,-10.640335,-8.163643
1.4585936016594104E18,-0.7154999,-0.73739624,12.833725,-0.4515381,0.040496826,0.3776245,12.941551,-10.725975,-8.2473755
1.458593601679552E18,-1.8918762,-0.08479309,12.396759,-0.16207886,0.05117798,0.54211426,12.855339,-10.811424,-8.331299
1.4585936016996938E18,-1.1585083,-0.53271484,10.681274,-0.3746338,-0.020385742,0.7568054,12.42466,-10.554695,-8.582687
1.4585936017198354E18,0.47529602,-0.056915283,11.891693,-0.45367432,0.18789673,0.6905823,12.252426,-10.383606,-8.498955
1.458593601739977E18,0.4935608,0.29449463,11.786682,-0.19839478,-0.073791504,0.38616943,12.166214,-10.212517,-8.415222
1.4585936017601185E18,0.03227234,-0.35359192,9.685928,-0.17810059,-0.5832825,0.051849365,11.99398,-10.212517,-8.415222
1.45859360178026E18,0.045333862,-1.040329,8.718063,-0.7036133,-0.7755432,-0.16497803,11.99398,-10.383606,-8.4991455
1.4585936018004017E18,0.03552246,-1.5281982,10.305389,-1.1287231,-0.2842102,-0.19595337,11.821747,-10.383606,-8.4991455
1.4585936018205432E18,-0.07748413,-1.9292908,10.919098,-0.8819885,0.13876343,-0.031463623,11.735725,-10.212517,-8.4991455
1.458593601840685E18,0.09140015,-1.7436829,9.633209,-0.67263794,0.2765503,0.12661743,11.47747,-9.955978,-8.080101
1.4585936018608266E18,0.904068,-1.4801788,8.152145,-0.5017395,0.33636475,0.2857666,11.47747,-9.784889,-8.080101
1.4585936018809682E18,1.3885498,-1.2301178,8.277252,-0.3126831,0.25732422,0.2921753,11.391449,-9.52816,-8.080101
1.4585936019011098E18,0.5667572,-0.9138031,9.85553,0.17651367,-0.09194946,0.270813,11.305428,-9.100533,-8.163834
1.4585936019212513E18,-0.25793457,-0.46751404,9.796722,0.9444885,-0.39956665,0.37548828,10.874748,-9.015083,-7.9961777
1.458593601941393E18,-0.017333984,0.048431396,8.341583,1.3738708,-0.50424194,0.5015259,10.702515,-8.929634,-8.07991
1.4585936019615345E18,0.6558075,0.025817871,6.973358,1.440094,-0.4935608,0.42141724,10.788536,-8.929634,-8.331299
1.458593601981676E18,0.5164337,-0.24131775,6.9604187,1.2072449,-0.5555115,0.05505371,10.702324,-8.929634,-8.582687
1.4585936020018179E18,-0.6606598,-0.8500824,7.7276306,1.1324768,-0.8086548,-0.19274902,10.8745575,-9.100723,-8.750343
1.4585936020219594E18,-1.7636261,-1.2982941,7.7686462,0.93914795,-0.80758667,-0.12973022,10.702324,-9.528542,-8.582687
1.458593602042101E18,-2.136551,-1.0634308,7.4717407,0.45529175,-0.29916382,0.21954346,10.271645,-10.041809,-8.834076
1.4585936020622426E18,-0.64505005,-0.7133484,7.3867188,-0.039245605,0.2637329,0.45880127,10.013199,-10.555077,-9.169388
1.458593602082384E18,1.0314636,-0.073654175,8.381973,-0.5700989,0.6119385,0.37869263,10.271454,-10.811615,-9.420776
1.4585936021025257E18,1.1157074,-0.05088806,9.4357605,-0.84994507,0.5724182,0.2441101,10.09903,-10.982704,-9.337044
1.4585936021226673E18,0.949234,0.40449524,11.368256,-0.8542175,0.4933777,0.31140137,9.66835,-11.239243,-9.420776
1.4585936021428088E18,1.6100769,1.4421387,12.924011,-0.50494385,0.4794922,0.41607666,9.4099045,-11.495781,-9.337044
1.4585936021629507E18,3.4438477,1.4943695,12.538345,-0.18344116,0.38549805,0.270813,8.979225,-11.410141,-9.504509
1.4585936021830922E18,4.92807,0.9007416,11.773071,-0.21762085,0.50619507,-0.24401855,9.065437,-11.239052,-9.923553
1.4585936022032338E18,3.853714,0.44932556,11.761551,-0.3052063,0.56814575,-0.7321472,9.4099045,-11.324692,-9.923553
1.4585936022233754E18,1.8885498,-0.57325745,11.566711,-0.36395264,0.25305176,-0.9500427,9.496117,-11.410141,-9.588242
1.458593602243517E18,1.4077606,-1.2191162,12.205627,-0.34899902,-0.1581726,-0.96499634,9.496117,-11.239052,-9.504509
1.4585936022636585E18,1.6664734,-1.2358551,12.154968,-0.32870483,-0.07913208,-0.88916016,9.668541,-11.324501,-9.588242
1.4585936022838E18,2.33815,-1.3709564,11.404526,-0.35861206,0.3897705,-0.76953125,9.926987,-11.410141,-9.336853
1.4585936022989064E18,2.5472107,-1.2809143,10.936417,-0.256073,0.70059204,-0.7236023,10.185432,-11.410141,-9.336853
1.4585936023240835E18,2.2375488,-0.88290405,10.395386,-0.018951416,0.86935425,-0.7438965,10.357666,-11.9234085,-9.169388
1.458593602344225E18,1.3617859,-0.51516724,10.070084,0.39227295,0.72836304,-0.8005066,10.271454,-12.265587,-8.917999
1.4585936023643666E18,0.5489044,-0.106903076,9.0885315,0.9060364,0.35665894,-0.79837036,10.357666,-12.351036,-8.917999
1.4585936023845082E18,0.20167542,0.24055481,7.3978424,1.1698608,0.014862061,-0.785553,10.5299,-12.607765,-8.750534
1.4585936024046497E18,0.06350708,0.59062195,6.352783,1.1645203,-0.2906189,-0.81225586,10.702324,-13.121033,-8.582878
1.4585936024247913E18,-0.030197144,0.71875,6.410263,1.0085754,-0.5010376,-0.88916016,10.8745575,-13.548851,-8.415222
1.4585936024449329E18,-0.46012878,0.45509338,7.1592712,0.9071045,-0.4732666,-0.934021,10.96077,-13.891029,-8.415222
1.4585936024650747E18,-1.4937134,0.23347473,7.4865875,0.8248596,-0.3611145,-0.98635864,11.305237,-14.1477585,-8.163834
1.4585936024852163E18,-2.9531555,-0.5349426,7.2609863,0.6325989,-0.17419434,-0.9682007,11.563683,-14.318848,-7.912445
1.4585936025053578E18,-4.8974915,-0.8243866,7.079071,0.31536865,0.034088135,-0.8272095,11.90815,-14.746475,-7.6610565
1.4585936025254994E18,-6.5263367,-1.0387268,7.8322754,0.041931152,-0.09088135,-0.21731567,12.080383,-14.917564,-7.2422028
1.4585936025506765E18,-5.8863373,-0.7253113,9.057678,-0.24325562,-0.20089722,0.6211548,12.252617,-15.174103,-7.15847
1.4585936025657825E18,-4.3614197,-0.67082214,9.868713,-0.35006714,-0.07913208,0.87750244,12.510872,-15.430832,-6.823349
1.458593602585924E18,-3.1596985,-0.34677124,11.063431,-0.46862793,0.27334595,1.197937,12.596893,-15.68737,-6.488228
1.4585936026060657E18,-2.5498047,0.7185211,12.091415,-0.3404541,0.4527893,1.3763123,12.682915,-15.7728195,-6.069374
1.4585936026262075E18,-0.7582092,0.16764832,10.73494,-0.43551636,0.45065308,1.3399963,12.510681,-16.029358,-5.734253
1.458593602646349E18,-0.34570313,-0.19186401,11.265076,-0.61816406,0.4944458,1.0964661,12.424469,-16.029358,-5.6505203
1.4585936026664906E18,-1.4515381,0.39387512,11.653595,-0.33724976,0.13342285,0.938385,12.080002,-15.943909,-5.2316666
1.4585936026866322E18,-1.2797394,0.58099365,9.246811,-0.23150635,-0.5587158,0.8102112,11.907768,-16.029549,-4.812622
1.4585936027067738E18,0.27383423,-0.17857361,7.305176,-1.0710449,-0.5170593,0.5015259,11.563301,-16.029549,-4.47731
1.4585936027269153E18,0.29763794,-0.9510956,9.934921,-1.6232605,-0.15176392,0.23770142,11.218834,-15.943909,-4.561043
1.458593602747057E18,-0.6643524,-1.8677673,12.263412,-1.303894,-0.07272339,0.29858398,10.874367,-15.516281,-4.3935776
